File: data/xrd/rs_1.44_xrd.dat
2.29256 0.159988
2.28799 0.200229
2.28343 0.258153
2.27889 0.345762
2.27438 0.487094
2.26987 0.735827
2.26539 1.23047
2.26093 2.40358
2.25648 5.86224
2.25205 12.9413
2.24764 7.32662
2.24324 2.8738
2.23886 1.4069
2.2345 0.817479
2.23016 0.531053
2.22583 0.372168
2.22152 0.275402
2.21722 0.212286
2.21295 0.168916
2.20868 0.13787
2.20444 0.114905
2.20021 0.0974545
2.196 0.0838945
2.1918 0.0731567
2.18762 0.064516
2.18346 0.0574657
2.17931 0.0516438
2.17518 0.0467858
2.17106 0.0426949
2.16696 0.0392224
2.16288 0.0362541
2.15881 0.0337014
2.15475 0.0314945
2.15071 0.029578
2.14669 0.0279072
2.14268 0.0264463
2.13868 0.0251659
2.1347 0.0240418
2.13074 0.0230542
2.12679 0.0221866
2.12285 0.0214251
2.11893 0.0207583
2.11502 0.0201766
2.11113 0.0196719
2.10725 0.0192375
2.10339 0.0188678
2.09954 0.0185581
2.09571 0.0183048
2.09188 0.0181048
2.08808 0.0179558
2.08428 0.0178563
2.0805 0.0178052
2.07674 0.0178021
2.07298 0.0178471
2.06925 0.0179411
2.06552 0.0180855
2.06181 0.0182825
2.05811 0.018535
2.05442 0.0188467
2.05075 0.0192227
2.04709 0.0196688
2.04345 0.0201926
2.03981 0.0208032
2.03619 0.0215121
2.03259 0.0223331
2.02899 0.0232836
2.02541 0.0243849
2.02184 0.0256641
2.01828 0.027155
2.01474 0.0289008
2.01121 0.0309573
2.00769 0.033397
2.00418 0.0363159
2.00069 0.0398431
1.9972 0.0441552
1.99373 0.0494991
1.99027 0.0562279
1.98683 0.0648606
1.98339 0.0761857
1.97997 0.0914461
1.97656 0.112692
1.97316 0.143499
1.96977 0.190542
1.9664 0.267419
1.96303 0.405186
1.95968 0.686421
1.95634 1.37878
1.95301 3.47132
1.94969 6.47713
1.94638 3.05746
1.94309 1.24671
1.9398 0.637574
1.93653 0.383428
1.93327 0.256643
1.93002 0.185062
1.92677 0.140948
1.92354 0.111952
1.92033 0.0919393
1.91712 0.0775916
1.91392 0.0669915
1.91073 0.0589695
1.90756 0.0527807
1.90439 0.0479323
1.90123 0.0440884
1.89809 0.0410138
1.89496 0.03854
1.89183 0.0365441
1.88872 0.0349346
1.88561 0.0336428
1.88252 0.0326163
1.87944 0.0318148
1.87636 0.0312073
1.8733 0.0307695
1.87025 0.0304829
1.86721 0.0303331
1.86417 0.0303092
1.86115 0.0304033
1.85814 0.0306098
1.85513 0.0309256
1.85214 0.031349
1.84915 0.0318805
1.84618 0.0325221
1.84321 0.0332776
1.84026 0.0341526
1.83731 0.0351545
1.83437 0.0362929
1.83145 0.0375794
1.82853 0.0390286
1.82562 0.0406581
1.82272 0.042489
1.81983 0.0445469
1.81695 0.0468629
1.81408 0.0494744
1.81121 0.0524269
1.80836 0.0557765
1.80552 0.0595917
1.80268 0.063958
1.79985 0.0689822
1.79703 0.0747994
1.79422 0.0815824
1.79142 0.0895547
1.78863 0.0990097
1.78585 0.110338
1.78307 0.12407
1.78031 0.140938
1.77755 0.161979
1.7748 0.188694
1.77206 0.22333
1.76933 0.269362
1.76661 0.3324
1.76389 0.421954
1.76119 0.555192
1.75849 0.765592
1.7558 1.12534
1.75312 1.81216
1.75044 3.3485
1.74778 7.61434
1.74512 19.4235
1.74247 16.6973
1.73983 6.39244
1.7372 2.94122
1.73457 1.64379
1.73195 1.04373
1.72934 0.722211
1.72674 0.53132
1.72415 0.409259
1.72156 0.326752
1.71898 0.268544
1.71641 0.226071
1.71385 0.194237
1.7113 0.169857
1.70875 0.150859
1.70621 0.13585
1.70368 0.123869
1.70115 0.114232
1.69863 0.106447
1.69613 0.100151
1.69362 0.0950721
1.69113 0.0910071
1.68864 0.0878003
1.68616 0.0853329
1.68369 0.0835145
1.68122 0.0822762
1.67876 0.0815671
1.67631 0.0813505
1.67387 0.0816019
1.67143 0.0823073
1.669 0.0834627
1.66658 0.085073
1.66416 0.0871523
1.66175 0.0897239
1.65935 0.0928211
1.65695 0.0964886
1.65457 0.100784
1.65219 0.105778
1.64981 0.111562
1.64744 0.118248
1.64508 0.125974
1.64273 0.134914
1.64038 0.145285
1.63804 0.157361
1.63571 0.171489
1.63338 0.188117
1.63106 0.207825
1.62875 0.231378
1.62644 0.259801
1.62414 0.294487
1.62184 0.337371
1.61956 0.391202
1.61727 0.459988
1.615 0.549754
1.61273 0.669889
1.61047 0.835667
1.60821 1.07325
1.60596 1.43045
1.60372 2.00197
1.60148 2.99624
1.59925 4.94075
1.59703 9.44254
1.59481 22.4218
1.5926 53.4929
1.59039 35.3671
1.58819 13.6407
1.586 6.50831
1.58381 3.7171
1.58163 2.38632
1.57945 1.65772
1.57728 1.2181
1.57512 0.933306
1.57296 0.738599
1.57081 0.599757
1.56866 0.49735
1.56652 0.4197
1.56439 0.359451
1.56226 0.311787
1.56014 0.273448
1.55802 0.242165
1.55591 0.216319
1.55381 0.19473
1.55171 0.176523
1.54961 0.161036
1.54752 0.147764
1.54544 0.136312
1.54336 0.126372
1.54129 0.117697
1.53923 0.110091
1.53717 0.103393
1.53511 0.0974728
1.53306 0.0922237
1.53102 0.0875563
1.52898 0.0833966
1.52695 0.0796822
1.52492 0.0763607
1.5229 0.0733876
1.52088 0.070725
1.51887 0.0683406
1.51686 0.0662067
1.51486 0.0642995
1.51287 0.0625984
1.51087 0.0610857
1.50889 0.059746
1.50691 0.0585662
1.50494 0.0575347
1.50297 0.0566417
1.501 0.0558787
1.49904 0.0552385
1.49709 0.0547147
1.49514 0.0543023
1.4932 0.0539968
1.49126 0.0537949
1.48932 0.0536937
1.48739 0.0536913
1.48547 0.0537862
1.48355 0.0539777
1.48164 0.0542657
1.47973 0.0546506
1.47782 0.0551337
1.47593 0.0557166
1.47403 0.0564017
1.47214 0.0571919
1.47026 0.0580911
1.46838 0.0591037
1.4665 0.0602348
1.46463 0.0614906
1.46277 0.0628781
1.46091 0.0644053
1.45905 0.0660814
1.4572 0.0679167
1.45535 0.0699233
1.45351 0.0721144
1.45168 0.0745054
1.44984 0.0771135
1.44802 0.0799585
1.44619 0.0830627
1.44437 0.0864517
1.44256 0.0901546
1.44075 0.094205
1.43895 0.0986411
1.43715 0.103507
1.43535 0.108855
1.43356 0.114743
1.43177 0.121242
1.42999 0.128432
1.42821 0.136409
1.42644 0.145286
1.42467 0.155198
1.4229 0.166306
1.42114 0.178805
1.41939 0.192929
1.41764 0.208968
1.41589 0.227277
1.41415 0.248299
1.41241 0.272591
1.41067 0.30086
1.40894 0.334016
1.40722 0.373246
1.4055 0.42012
1.40378 0.47675
1.40207 0.54603
1.40036 0.632013
1.39865 0.74051
1.39695 0.880092
1.39525 1.06382
1.39356 1.31236
1.39187 1.66002
1.39019 2.16695
1.38851 2.9464
1.38683 4.23146
1.38516 6.56185
1.38349 11.3993
1.38183 23.5864
1.38017 60.6902
1.37851 100
1.37686 43.5258
1.37521 18.0563
1.37357 9.33075
1.37193 5.60968
1.37029 3.72388
1.36866 2.64663
1.36703 1.9764
1.36541 1.53213
1.36379 1.22295
1.36217 0.999372
1.36056 0.832589
1.35895 0.704956
1.35734 0.605178
1.35574 0.525756
1.35414 0.461556
1.35255 0.408971
1.35096 0.365408
1.34937 0.328962
1.34779 0.298215
1.34621 0.272089
1.34464 0.24976
1.34306 0.230586
1.3415 0.214065
1.33993 0.199802
1.33837 0.187486
1.33681 0.17687
1.33526 0.167762
1.33371 0.160013
1.33217 0.153514
1.33062 0.148193
1.32908 0.144009
1.32755 0.140959
1.32602 0.139076
1.32449 0.138443
1.32296 0.139196
1.32144 0.141551
1.31992 0.145833
1.31841 0.152521
1.3169 0.162335
1.31539 0.176369
1.31389 0.196337
1.31239 0.225025
1.31089 0.267179
1.3094 0.331392
1.30791 0.434464
1.30642 0.6127
1.30494 0.955725
1.30346 1.72786
1.30198 3.88262
1.30051 9.79373
1.29904 8.22023
1.29757 3.17083
1.29611 1.48463
1.29465 0.847771
1.29319 0.551874
1.29174 0.392617
1.29029 0.29762
1.28884 0.236573
1.2874 0.195093
1.28596 0.165676
1.28452 0.144106
1.28309 0.127873
1.28166 0.115408
1.28023 0.105693
1.2788 0.0980455
1.27738 0.0919968
1.27596 0.0872176
1.27455 0.0834741
1.27314 0.0805995
1.27173 0.078475
1.27032 0.0770184
1.26892 0.076176
1.26752 0.0759175
1.26613 0.0762334
1.26473 0.0771335
1.26334 0.0786473
1.26196 0.0808259
1.26057 0.0837447
1.25919 0.0875095
1.25781 0.092264
1.25644 0.0982018
1.25507 0.105584
1.2537 0.114764
1.25233 0.12623
1.25097 0.140661
1.24961 0.159027
1.24825 0.182746
1.2469 0.213953
1.24555 0.255979
1.2442 0.314246
1.24286 0.398053
1.24151 0.524396
1.24017 0.726979
1.23884 1.08005
1.2375 1.77174
1.23617 3.37615
1.23485 8.00987
1.23352 19.0071
1.2322 12.4352
1.23088 4.80888
1.22956 2.30541
1.22825 1.32383
1.22694 0.855128
1.22563 0.598208
1.22433 0.443028
1.22302 0.34241
1.22172 0.273568
1.22043 0.224448
1.21913 0.188206
1.21784 0.160725
1.21655 0.139415
1.21527 0.122578
1.21398 0.109067
1.2127 0.098085
1.21143 0.0890645
1.21015 0.0815942
1.20888 0.0753712
1.20761 0.0701693
1.20634 0.0658185
1.20508 0.0621911
1.20382 0.0591912
1.20256 0.0567489
1.2013 0.0548155
1.20005 0.0533612
1.1988 0.0523738
1.19755 0.0518591
1.1963 0.0518429
1.19506 0.052375
1.19382 0.0535359
1.19258 0.0554479
1.19135 0.058293
1.19011 0.0623424
1.18888 0.0680057
1.18765 0.0759172
1.18643 0.0870927
1.18521 0.103233
1.18399 0.127346
1.18277 0.165149
1.18155 0.228539
1.18034 0.345444
1.17913 0.592927
1.17792 1.23166
1.17672 3.1759
1.17551 4.54749
1.17431 1.88008
1.17312 0.807711
1.17192 0.432662
1.17073 0.26925
1.16954 0.185099
1.16835 0.136422
1.16716 0.105811
1.16598 0.0853235
1.1648 0.0709343
1.16362 0.0604351
1.16245 0.0525339
1.16127 0.046435
1.1601 0.0416271
1.15893 0.0377698
1.15777 0.0346298
1.1566 0.0320427
1.15544 0.0298908
1.15428 0.0280878
1.15312 0.0265699
1.15197 0.0252897
1.15082 0.0242116
1.14966 0.0233093
1.14852 0.0225638
1.14737 0.0219624
1.14623 0.0214979
1.14509 0.0211683
1.14395 0.0209775
1.14281 0.0209357
1.14168 0.0210615
1.14055 0.0213848
1.13942 0.0219514
1.13829 0.0228309
1.13716 0.0241311
1.13604 0.0260224
1.13492 0.0287842
1.1338 0.0328977
1.13268 0.0392436
1.13157 0.0495689
1.13046 0.0677196
1.12935 0.103428
1.12824 0.186336
1.12714 0.425621
1.12603 0.999899
1.12493 0.666713
1.12383 0.264102
1.12274 0.131872
1.12164 0.0801087
1.12055 0.0554144
1.11946 0.0418882
1.11837 0.0337288
1.11728 0.0284532
1.1162 0.0248636
1.11512 0.0223279
1.11404 0.0204877
1.11296 0.0191289
1.11189 0.0181174
1.11081 0.0173668
1.10974 0.0168199
1.10867 0.0164385
1.1076 0.0161976
1.10654 0.0160809
1.10548 0.0160795
1.10442 0.0161897
1.10336 0.0164132
1.1023 0.0167564
1.10124 0.0172311
1.10019 0.0178551
1.09914 0.018654
1.09809 0.0196635
1.09704 0.0209329
1.096 0.022531
1.09496 0.024555
1.09392 0.0271445
1.09288 0.0305058
1.09184 0.034952
1.0908 0.040977
1.08977 0.0493948
1.08874 0.0616224
1.08771 0.0802992
1.08668 0.110787
1.08566 0.165279
1.08464 0.276028
1.08362 0.546873
1.0826 1.3627
1.08158 2.62664
1.08056 1.27707
1.07955 0.519715
1.07854 0.266182
1.07753 0.161137
1.07652 0.109022
1.07551 0.079745
1.07451 0.0618
1.07351 0.0500875
1.07251 0.0420823
1.07151 0.0364242
1.07051 0.0323306
1.06952 0.0293274
1.06852 0.0271155
1.06753 0.0255008
1.06654 0.0243545
1.06556 0.0235912
1.06457 0.0231549
1.06359 0.0230113
1.06261 0.023143
1.06163 0.0235466
1.06065 0.0242326
1.05967 0.0252251
1.0587 0.0265642
1.05772 0.0283101
1.05675 0.0305486
1.05578 0.0334019
1.05482 0.0370437
1.05385 0.0417246
1.05289 0.0478141
1.05192 0.0558718
1.05096 0.0667753
1.05 0.0819603
1.04905 0.103901
1.04809 0.137151
1.04714 0.190808
1.04619 0.28512
1.04524 0.4721
1.04429 0.913242
1.04334 2.20781
1.0424 4.96945
1.04146 2.91202
1.04051 1.13931
1.03957 0.556273
1.03864 0.323358
1.0377 0.210616
1.03677 0.148223
1.03583 0.110271
1.0349 0.0855274
1.03397 0.0685198
1.03304 0.0563346
1.03212 0.0473082
1.03119 0.0404358
1.03027 0.0350822
1.02935 0.0308301
1.02843 0.0273962
1.02751 0.0245827
1.0266 0.0222484
1.02568 0.02029
1.02477 0.0186308
1.02386 0.0172129
1.02295 0.0159915
1.02204 0.0149322
1.02113 0.0140077
1.02023 0.0131962
1.01933 0.0124803
1.01843 0.011846
1.01753 0.0112817
1.01663 0.0107779
1.01573 0.0103267
1.01483 0.00992157
1.01394 0.00955702
1.01305 0.00922843
1.01216 0.00893188
1.01127 0.00866408
1.01038 0.0084222
1.0095 0.00820388
1.00861 0.00800709
1.00773 0.00783012
1.00685 0.00767153
1.00597 0.00753013
1.00509 0.00740494
1.00422 0.00729518
1.00334 0.00720024
1.00247 0.00711973
1.0016 0.00705338
1.00072 0.00700114
0.999856 0.00696312
0.998989 0.00693963
0.998123 0.0069312
0.997259 0.00693862
0.996396 0.00696294
0.995535 0.00700559
0.994675 0.00706836
0.993817 0.00715361
0.99296 0.00726432
0.992104 0.00740427
0.991251 0.00757837
0.990398 0.00779289
0.989547 0.00805603
0.988698 0.0083786
0.98785 0.00877502
0.987004 0.00926484
0.986159 0.00987515
0.985315 0.0106442
0.984473 0.0116275
0.983632 0.0129077
0.982793 0.0146129
0.981955 0.0169494
0.981119 0.0202663
0.980284 0.0251928
0.97945 0.0329532
0.978618 0.0461802
0.977788 0.0713332
0.976958 0.127314
0.976131 0.281888
0.975304 0.715171
0.974479 0.637557
0.973655 0.247474
0.972833 0.116183
0.972012 0.0671584
0.971193 0.0446531
0.970375 0.0327067
0.969558 0.0257086
0.968743 0.0213239
0.967929 0.018451
0.967117 0.0165191
0.966305 0.0152107
0.965496 0.0143398
0.964687 0.0137935
0.96388 0.0135021
0.963074 0.0134234
0.96227 0.0135338
0.961467 0.0138234
0.960665 0.0142938
0.959865 0.0149569
0.959066 0.0158362
0.958269 0.0169685
0.957472 0.0184077
0.956677 0.0202315
0.955884 0.0225517
0.955091 0.0255309
0.9543 0.0294115
0.953511 0.0345645
0.952722 0.0415802
0.951935 0.0514402
0.951149 0.0658717
0.950365 0.0881354
0.949582 0.124969
0.9488 0.192044
0.948019 0.332081
0.94724 0.687624
0.946462 1.77082
0.945685 2.78345
0.94491 1.18795
0.944136 0.499356
0.943363 0.26192
0.942591 0.16
0.941821 0.108149
0.941052 0.0784846
0.940284 0.0600417
0.939517 0.0478567
0.938752 0.0394321
0.937988 0.0334053
0.937225 0.0289846
0.936464 0.0256861
0.935704 0.0232027
0.934944 0.0213336
0.934187 0.0199457
0.93343 0.0189505
0.932675 0.0182911
0.931921 0.0179343
0.931168 0.0178669
0.930416 0.0180938
0.929666 0.0186401
0.928916 0.0195543
0.928168 0.0209175
0.927421 0.0228574
0.926676 0.025575
0.925931 0.0293913
0.925188 0.0348373
0.924446 0.0428338
0.923705 0.0550803
0.922966 0.0749817
0.922227 0.110131
0.92149 0.180081
0.920754 0.34571
0.920019 0.833073
0.919286 1.85306
0.918553 1.0698
0.917822 0.421477
0.917092 0.208081
0.916363 0.122593
0.915635 0.0811419
0.914908 0.0581915
0.914183 0.0442443
0.913458 0.0351765
0.912735 0.0289773
0.912013 0.0245761
0.911292 0.0213625
0.910572 0.0189691
0.909854 0.0171655
0.909136 0.0158026
0.90842 0.014782
0.907705 0.0140388
0.906991 0.0135311
0.906278 0.0132347
0.905566 0.0131395
0.904855 0.0132489
0.904146 0.0135806
0.903437 0.0141704
0.90273 0.0150781
0.902024 0.0164004
0.901318 0.0182918
0.900614 0.0210061
0.899912 0.0249759
0.89921 0.0309812
0.898509 0.0405348
0.897809 0.0568686
0.897111 0.0878332
0.896414 0.156091
0.895717 0.341914
0.895022 0.880356
0.894328 0.876261
0.893635 0.339966
0.892943 0.155233
0.892252 0.0872198
0.891562 0.0562728
0.890873 0.0398815
0.890186 0.0302379
0.889499 0.0241241
0.888813 0.0200322
0.888129 0.0171833
0.887446 0.0151444
0.886763 0.0136603
0.886082 0.0125742
0.885402 0.0117866
0.884722 0.0112339
0.884044 0.0108757
0.883367 0.0106881
0.882691 0.0106603
0.882016 0.0107923
0.881342 0.0110959
0.880669 0.0115961
0.879997 0.0123354
0.879326 0.0133819
0.878656 0.0148432
0.877988 0.0168928
0.87732 0.0198192
0.876653 0.0241269
0.875987 0.0307568
0.875322 0.041619
0.874659 0.0610489
0.873996 0.100479
0.873334 0.196573
0.872674 0.48541
0.872014 0.952315
0.871355 0.472148
0.870697 0.192439
0.870041 0.0990789
0.869385 0.0605821
0.86873 0.0415714
0.868077 0.0309513
0.867424 0.0244944
0.866772 0.0203326
0.866121 0.0175445
0.865472 0.0156364
0.864823 0.0143271
0.864175 0.0134494
0.863528 0.0129019
0.862882 0.0126236
0.862237 0.0125805
0.861593 0.0127588
0.86095 0.0131612
0.860308 0.0138073
0.859667 0.0147354
0.859027 0.0160085
0.858388 0.0177239
0.85775 0.0200319
0.857113 0.0231675
0.856477 0.0275091
0.855841 0.0336935
0.855207 0.0428535
0.854574 0.0571536
0.853941 0.0811343
0.85331 0.125567
0.852679 0.220585
0.85205 0.469682
0.851421 1.22205
0.850793 1.56753
0.850166 0.627738
0.84954 0.273562
0.848915 0.147841
0.848291 0.0923835
0.847668 0.0636489
0.847046 0.047016
0.846425 0.0366059
0.845804 0.0297139
0.845185 0.0249634
0.844566 0.021598
0.843949 0.0191764
0.843332 0.0174306
0.842716 0.0161929
0.842101 0.015358
0.841487 0.014862
0.840874 0.0146712
0.840262 0.0147763
0.839651 0.0151913
0.83904 0.0159563
0.838431 0.0171451
0.837822 0.0188798
0.837214 0.0213586
0.836607 0.0249075
0.836001 0.0300818
0.835396 0.0378792
0.834792 0.0502235
0.834189 0.0711915
0.833586 0.110579
0.832985 0.196249
0.832384 0.425531
0.831784 1.10652
0.831185 1.24136
0.830587 0.485476
0.82999 0.215893
0.829394 0.118275
0.828798 0.0744252
0.828204 0.0513743
0.82761 0.0378541
0.827017 0.0292722
0.826425 0.0234929
0.825834 0.019419
0.825243 0.0164412
0.824654 0.0141999
0.824065 0.012472
0.823477 0.0111131
0.82289 0.0100267
0.822304 0.00914613
0.821719 0.00842417
0.821135 0.00782678
0.820551 0.00732888
0.819968 0.00691168
0.819386 0.00656092
0.818805 0.00626567
0.818225 0.00601745
0.817645 0.00580968
0.817067 0.00563718
0.816489 0.00549595
0.815912 0.00538287
0.815336 0.00529557
0.81476 0.00523232
0.814186 0.00519191
0.813612 0.00517364
0.813039 0.00517723
0.812467 0.00520287
0.811896 0.00525118
0.811326 0.00532325
0.810756 0.00542072
0.810187 0.00554577
0.809619 0.00570133
0.809052 0.00589114
0.808485 0.00611999
0.80792 0.00639397
0.807355 0.00672087
0.806791 0.00711062
0.806228 0.00757609
0.805665 0.008134
0.805103 0.00880645
0.804543 0.00962297
0.803983 0.0106237
0.803423 0.0118645
0.802865 0.0134242
0.802307 0.0154178
0.80175 0.0180175
0.801194 0.0214905
0.800638 0.0262699
0.800084 0.0330933
0.79953 0.0432993
0.798977 0.0595169
0.798425 0.0874669
0.797873 0.14141
0.797322 0.26395
0.796772 0.610233
0.796223 1.51724
0.795674 1.15333
0.795127 0.442801
0.79458 0.208088
0.794034 0.11824
0.793488 0.0761231
0.792943 0.0533593
0.792399 0.0397747
0.791856 0.0310708
0.791314 0.0251951
0.790772 0.0210726
0.790231 0.0180987
0.789691 0.0159142
0.789152 0.0142971
0.788613 0.0131062
0.788075 0.0122518
0.787538 0.0116782
0.787001 0.0113556
0.786465 0.0112761
0.78593 0.0114536
0.785396 0.0119292
0.784863 0.0127826
0.78433 0.0141564
0.783798 0.0163055
0.783266 0.0197041
0.782736 0.0252984
0.782206 0.0351733
0.781677 0.054595
0.781148 0.0995451
0.78062 0.228775
0.780093 0.545205
0.779567 0.372744
0.779041 0.146289
0.778516 0.0719388
0.777992 0.0430309
0.777469 0.0293593
0.776946 0.0219662
0.776424 0.0175974
0.775903 0.0148664
0.775382 0.013109
0.774862 0.0119797
0.774343 0.0112879
0.773824 0.0109264
0.773307 0.010837
0.772789 0.0109932
0.772273 0.0113929
0.771757 0.0120565
0.771242 0.0130284
0.770728 0.0143852
0.770214 0.0162496
0.769701 0.0188172
0.769189 0.0224066
0.768677 0.0275577
0.768167 0.0352365
0.767656 0.0473001
0.767147 0.0676726
0.766638 0.105751
0.76613 0.188152
0.765622 0.407465
0.765115 1.06213
0.764609 1.23264
0.764104 0.483859
0.763599 0.21361
0.763095 0.116267
0.762591 0.0727599
0.762089 0.0499917
0.761587 0.0367011
0.761085 0.0283145
0.760584 0.0227114
0.760084 0.0188059
0.759585 0.0159978
0.759086 0.0139356
0.758588 0.0124045
0.75809 0.0112691
0.757594 0.0104441
0.757097 0.00987757
0.756602 0.00954251
0.756107 0.00943367
0.755613 0.00956868
0.755119 0.0099947
0.754627 0.0108038
0.754134 0.0121654
0.753643 0.0143969
0.753152 0.0181285
0.752661 0.0247309
0.752172 0.0375973
0.751683 0.066747
0.751194 0.148345
0.750707 0.372089
0.75022 0.311426
0.749733 0.120691
0.749247 0.0569831
0.748762 0.0328763
0.748278 0.0216458
0.747794 0.0155795
0.74731 0.0119439
0.746828 0.00959372
0.746346 0.00798509
0.745864 0.00683397
0.745383 0.00598061
0.744903 0.00532967
0.744424 0.00482145
0.743945 0.00441703
0.743467 0.00409016
0.742989 0.00382264
0.742512 0.00360154
0.742035 0.00341747
0.74156 0.00326351
0.741084 0.00313449
0.74061 0.0030265
0.740136 0.00293655
0.739662 0.00286241
0.73919 0.00280235
0.738718 0.00275512
0.738246 0.00271982
0.737775 0.00269585
0.737305 0.00268291
0.736835 0.00268094
0.736366 0.00269015
0.735898 0.00271099
0.73543 0.00274424
0.734962 0.00279096
0.734496 0.00285264
0.734029 0.00293122
0.733564 0.00302923
0.733099 0.00314997
0.732635 0.00329775
0.732171 0.0034782
0.731708 0.00369876
0.731245 0.00396941
0.730783 0.00430372
0.730322 0.00472048
0.729861 0.00524627
0.729401 0.00591963
0.728941 0.00679813
0.728482 0.00797071
0.728024 0.00958067
0.727566 0.0118705
0.727109 0.0152766
0.726652 0.020647
0.726196 0.0298019
0.725741 0.0471955
0.725286 0.0858167
0.724831 0.192098
0.724377 0.492801
0.723924 0.4513
0.723471 0.173669
0.723019 0.0797361
0.722568 0.044762
0.722117 0.0287199
0.721667 0.0201879
0.721217 0.0151643
0.720767 0.0119882
0.720319 0.00987741
0.719871 0.00842787
0.719423 0.00741561
0.718976 0.00671058
0.71853 0.00623562
0.718084 0.00594596
0.717638 0.00581899
0.717194 0.00584969
0.716749 0.00605032
0.716306 0.00645418
0.715863 0.00712532
0.71542 0.00817926
0.714978 0.00982686
0.714537 0.0124736
0.714096 0.0169658
0.713656 0.0252873
0.713216 0.0428867
0.712776 0.0880888
0.712338 0.225928
0.7119 0.337081
0.711462 0.141501
0.711025 0.0604761
0.710588 0.0322983
0.710152 0.0200849
0.709717 0.0138156
0.709282 0.0101956
0.708848 0.00792111
0.708414 0.00639902
0.707981 0.00532968
0.707548 0.00454884
0.707116 0.00396054
0.706684 0.00350573
0.706253 0.00314645
0.705822 0.00285741
0.705392 0.00262126
0.704962 0.00242574
0.704533 0.00226202
0.704105 0.00212361
0.703677 0.00200565
0.703249 0.00190445
0.702823 0.00181716
0.702396 0.00174159
0.70197 0.00167601
0.701545 0.00161907
0.70112 0.00156969
0.700696 0.00152706
0.700272 0.00149052
0.699849 0.0014596
0.699426 0.00143396
0.699004 0.00141341
0.698582 0.00139786
0.698161 0.00138737
0.69774 0.00138215
0.69732 0.00138257
0.6969 0.00138919
0.696481 0.00140287
0.696062 0.00142477
0.695644 0.00145656
0.695226 0.00150054
0.694809 0.00156001
0.694392 0.00163969
0.693976 0.00174654
0.693561 0.00189115
0.693146 0.00209009
0.692731 0.00237057
0.692317 0.0027796
0.691903 0.00340394
0.69149 0.00441776
0.691077 0.00621098
0.690665 0.0097934
0.690254 0.0183328
0.689842 0.0436064
0.689432 0.0935574
0.689022 0.0520284
0.688612 0.0210448
0.688203 0.0108262
0.687794 0.00670791
0.687386 0.00470819
0.686978 0.00360577
0.686571 0.00294398
0.686164 0.00252409
0.685758 0.00224949
0.685352 0.00206941
0.684947 0.0019559
0.684542 0.00189348
0.684138 0.00187437
0.683734 0.00189625
0.683331 0.00196164
0.682928 0.00207847
0.682526 0.00226218
0.682124 0.00254031
0.681722 0.00296206
0.681321 0.0036194
0.680921 0.00469729
0.680521 0.00660828
0.680121 0.0104126
0.679722 0.0194012
0.679324 0.0457845
0.678926 0.102314
0.678528 0.0604851
0.678131 0.0241121
0.677734 0.012154
0.677338 0.00738453
0.676942 0.00508287
0.676547 0.00381668
0.676152 0.00305514
0.675758 0.00256864
0.675364 0.00224596
0.67497 0.00202861
0.674577 0.00188417
0.674185 0.00179437
0.673793 0.00174942
0.673401 0.00174544
0.67301 0.00178349
0.67262 0.00187001
0.672229 0.00201877
0.67184 0.00225526
0.67145 0.00262647
0.671062 0.00322271
0.670673 0.00423191
0.670285 0.00609179
0.669898 0.00999404
0.669511 0.019906
0.669124 0.0501363
0.668738 0.0797671
0.668353 0.0346509
0.667967 0.0148707
0.667583 0.00806263
0.667198 0.00514506
0.666814 0.0036622
0.666431 0.00281494
0.666048 0.0022898
0.665666 0.00194532
0.665283 0.00171069
0.664902 0.00154769
0.664521 0.00143468
0.66414 0.00135917
0.66376 0.00131431
0.66338 0.00129722
0.663 0.00130843
0.662621 0.0013523
0.662243 0.00143859
0.661865 0.00158617
0.661487 0.0018315
0.66111 0.002249
0.660733 0.00300604
0.660357 0.00453564
0.659981 0.00819072
0.659605 0.0189989
0.65923 0.041197
0.658855 0.0236353
0.658481 0.00963752
0.658107 0.00502122
0.657734 0.00316293
0.657361 0.0022574
0.656989 0.00175351
0.656617 0.00144587
0.656245 0.00124517
0.655874 0.00110792
0.655503 0.00101105
0.655133 0.000941571
0.654763 0.000891904
0.654393 0.000857657
0.654024 0.000836524
0.653655 0.000827828
0.653287 0.000832503
0.652919 0.000853568
0.652552 0.000897392
0.652185 0.000976684
0.651818 0.00111781
0.651452 0.00138067
0.651086 0.00192175
0.650721 0.00323514
0.650356 0.00715923
0.649991 0.014601
0.649627 0.0080682
0.649264 0.00349956
0.6489 0.00198458
0.648538 0.00136667
0.648175 0.00106209
0.647813 0.000890802
0.647451 0.000785135
0.64709 0.000715493
0.646729 0.000667395
0.646369 0.000633152
0.646009 0.000608445
0.645649 0.000590788
0.64529 0.00057879
0.644931 0.000571817
0.644573 0.000569869
0.644215 0.000573643
0.643858 0.000584825
0.6435 0.000606812
0.643144 0.000646408
0.642787 0.000718129
0.642431 0.000856546
0.642076 0.00115821
0.64172 0.00195338
0.641366 0.00437171
0.641011 0.00566129
0.640657 0.00253953
0.640304 0.00133969
0.639951 0.000914332
0.639598 0.000726406
0.639245 0.000628596
0.638893 0.000571689
0.638542 0.000536005
0.63819 0.000512565
0.63784 0.000496879
0.637489 0.000486574
0.637139 0.000480403
0.636789 0.000477795
0.63644 0.000478676
0.636091 0.000483443
0.635743 0.000493071
0.635395 0.000509431
0.635047 0.000535972
0.6347 0.000579277
0.634353 0.000652842
0.634006 0.000787446
0.63366 0.0010645
0.633314 0.00174581
0.632969 0.00380242
0.632624 0.00704994
0.632279 0.00363219
0.631935 0.00168254
0.631591 0.00102892
0.631247 0.000757097
0.630904 0.000621145
0.630561 0.000543747
0.630219 0.000495374
0.629877 0.000462942
0.629535 0.000439971
0.629194 0.000422966
0.628853 0.00040991
0.628512 0.000399573
0.628172 0.000391172
0.627833 0.000384188
0.627493 0.000378267
0.627154 0.000373162
0.626815 0.000368692
0.626477 0.000364727
0.626139 0.000361168
0.625802 0.000357941
0.625464 0.000354989
0.625128 0.000352265
0.624791 0.000349734
0.624455 0.000347368
0.624119 0.000345143
0.623784 0.000343041
0.623449 0.000341045
0.623114 0.000339143
0.62278 0.000337325
0.622446 0.00033558
0.622113 0.000333901
0.62178 0.000332281
0.621447 0.000330716
0.621114 0.000329199
0.620782 0.000327727
0.620451 0.000326296
0.620119 0.000324902
0.619788 0.000323543
0.619457 0.000322217
0.619127 0.000320921
0.618797 0.000319653
0.618468 0.000318411
0.618138 0.000317194
0.61781 0.000316001
0.617481 0.000314829
0.617153 0.000313679
0.616825 0.000312549
0.616498 0.000311439
0.616171 0.000310347
0.615844 0.000309272
0.615517 0.000308215
0.615191 0.000307175
0.614866 0.000306151
0.61454 0.000305143
0.614215 0.000304151
0.613891 0.000303174
0.613566 0.000302214
0.613242 0.00030127
0.612919 0.000300342
0.612595 0.000299432
0.612273 0.000298542
0.61195 0.000297673
0.611628 0.00029683
0.611306 0.00029602
0.610984 0.000295256
0.610663 0.000294564
0.610342 0.000294003
0.610022 0.000293724
0.609702 0.000294204
0.609382 0.000297218
0.609062 0.000303389
0.608743 0.000296363
0.608424 0.000291461
0.608106 0.0002894
0.607788 0.000288197
0.60747 0.000287325
0.607152 0.000286623
0.606835 0.000286039
0.606518 0.00028556
0.606202 0.00028519
0.605886 0.000284949
0.60557 0.000284869
0.605255 0.000285
0.604939 0.000285422
0.604625 0.00028626
0.60431 0.00028772
0.603996 0.000290154
0.603682 0.000294212
0.603369 0.000301185
0.603056 0.000313939
0.602743 0.000339795
0.60243 0.000401334
0.602118 0.000582175
0.601806 0.000986083
0.601495 0.000706571
0.601184 0.000439184
0.600873 0.000350946
0.600562 0.000315584
0.600252 0.000298255
0.599942 0.000288453
0.599633 0.000282306
0.599324 0.000278143
0.599015 0.000275159
0.598706 0.000272933
0.598398 0.000271231
0.59809 0.000269927
0.597782 0.000268956
0.597475 0.000268306
0.597168 0.000268013
0.596861 0.000268184
0.596555 0.000269051
0.596249 0.000271107
0.595943 0.000275488
0.595638 0.000285186
0.595333 0.000309728
0.595028 0.000384552
0.594724 0.000517579
0.59442 0.000390896
0.594116 0.00030956
0.593812 0.000282174
0.593509 0.000270659
0.593206 0.000264749
0.592904 0.000261253
0.592602 0.000258971
0.5923 0.000257378
0.591998 0.000256224
0.591697 0.000255384
0.591396 0.000254801
0.591095 0.000254458
0.590795 0.000254378
0.590495 0.000254621
0.590195 0.000255314
0.589896 0.000256689
0.589597 0.00025921
0.589298 0.000263853
0.588999 0.000272949
0.588701 0.00029306
0.588403 0.00034684
0.588106 0.000509384
0.587808 0.000569992
0.587511 0.0003736
0.587215 0.000300944
0.586918 0.000274979
0.586622 0.000263518
0.586326 0.000257685
0.586031 0.000254502
0.585736 0.000252796
0.585441 0.000252058
0.585146 0.000252078
0.584852 0.000252804
0.584558 0.000254301
0.584265 0.00025675
0.583971 0.00026049
0.583678 0.000266115
0.583385 0.000274685
0.583093 0.000288189
0.582801 0.00031068
0.582509 0.000351363
0.582217 0.000434524
0.581926 0.000638075
0.581635 0.00125117
0.581344 0.00224099
0.581054 0.00122022
0.580764 0.000626188
0.580474 0.000427404
0.580185 0.000344968
0.579895 0.000303838
0.579607 0.000280472
0.579318 0.000265893
0.57903 0.000256131
0.578742 0.000249221
0.578454 0.000244106
0.578166 0.000240175
0.577879 0.000237056
0.577592 0.000234514
0.577306 0.000232392
0.577019 0.000230584
0.576733 0.000229014
0.576448 0.00022763
0.576162 0.000226393