File: data/xrd/rs_1.42_xrd.dat
2.29256 0.060215
2.28799 0.0677498
2.28343 0.0769014
2.27889 0.0881699
2.27438 0.102264
2.26987 0.120216
2.26539 0.143572
2.26093 0.17474
2.25648 0.217624
2.25205 0.278887
2.24764 0.370659
2.24324 0.516839
2.23886 0.769675
2.2345 1.26018
2.23016 2.38283
2.22583 5.58136
2.22152 13.6912
2.21722 9.8291
2.21295 3.77177
2.20868 1.77798
2.20444 1.00783
2.20021 0.64417
2.196 0.446417
2.1918 0.327688
2.18762 0.251069
2.18346 0.198852
2.17931 0.161717
2.17518 0.134393
2.17106 0.113723
2.16696 0.0977194
2.16288 0.0850871
2.15881 0.0749495
2.15475 0.0666977
2.15071 0.0598979
2.14669 0.0542344
2.14268 0.0494733
2.13868 0.0454378
2.1347 0.0419931
2.13074 0.0390342
2.12679 0.036479
2.12285 0.0342622
2.11893 0.0323315
2.11502 0.0306446
2.11113 0.0291672
2.10725 0.027871
2.10339 0.0267327
2.09954 0.025733
2.09571 0.0248558
2.09188 0.0240876
2.08808 0.0234173
2.08428 0.0228353
2.0805 0.0223338
2.07674 0.0219061
2.07298 0.0215468
2.06925 0.0212514
2.06552 0.0210163
2.06181 0.0208386
2.05811 0.0207163
2.05442 0.020648
2.05075 0.0206327
2.04709 0.0206705
2.04345 0.0207618
2.03981 0.0209077
2.03619 0.0211103
2.03259 0.0213721
2.02899 0.0216967
2.02541 0.0220886
2.02184 0.0225536
2.01828 0.0230986
2.01474 0.0237323
2.01121 0.0244653
2.00769 0.0253105
2.00418 0.026284
2.00069 0.0274053
1.9972 0.0286989
1.99373 0.0301949
1.99027 0.0319317
1.98683 0.0339577
1.98339 0.0363352
1.97997 0.0391448
1.97656 0.042493
1.97316 0.046522
1.96977 0.0514255
1.9664 0.0574721
1.96303 0.0650437
1.95968 0.074697
1.95634 0.0872688
1.95301 0.104064
1.94969 0.127204
1.94638 0.160327
1.94309 0.210079
1.9398 0.289636
1.93653 0.428014
1.93327 0.698716
1.93002 1.32592
1.92677 3.13599
1.92354 7.44177
1.92033 4.88597
1.91712 1.89371
1.91392 0.911646
1.91073 0.526976
1.90756 0.343534
1.90439 0.243157
1.90123 0.182675
1.89809 0.143586
1.89496 0.116957
1.89183 0.098062
1.88872 0.0842188
1.88561 0.0738146
1.88252 0.065834
1.87944 0.0596123
1.87636 0.0546999
1.8733 0.0507844
1.87025 0.0476436
1.86721 0.0451157
1.86417 0.0430814
1.86115 0.0414511
1.85814 0.0401569
1.85513 0.0391467
1.85214 0.0383802
1.84915 0.0378263
1.84618 0.0374608
1.84321 0.0372651
1.84026 0.0372251
1.83731 0.0373302
1.83437 0.0375732
1.83145 0.0379491
1.82853 0.0384557
1.82562 0.0390926
1.82272 0.0398616
1.81983 0.0407666
1.81695 0.0418133
1.81408 0.0430099
1.81121 0.0443665
1.80836 0.045896
1.80552 0.0476142
1.80268 0.0495402
1.79985 0.0516969
1.79703 0.054112
1.79422 0.0568186
1.79142 0.0598567
1.78863 0.0632746
1.78585 0.0671307
1.78307 0.0714966
1.78031 0.0764598
1.77755 0.082129
1.7748 0.0886398
1.77206 0.096163
1.76933 0.104916
1.76661 0.11518
1.76389 0.127322
1.76119 0.141829
1.75849 0.159357
1.7558 0.180809
1.75312 0.207454
1.75044 0.241119
1.74778 0.284512
1.74512 0.34178
1.74247 0.419537
1.73983 0.52884
1.7372 0.689283
1.73457 0.938222
1.73195 1.35383
1.72934 2.12111
1.72674 3.75602
1.72415 8.02477
1.72156 20.9437
1.71898 27.5442
1.71641 11.0643
1.71385 4.77507
1.7113 2.54995
1.70875 1.57088
1.70621 1.064
1.70368 0.770248
1.70115 0.585692
1.69863 0.462575
1.69613 0.376583
1.69362 0.314318
1.69113 0.267918
1.68864 0.23253
1.68616 0.205029
1.68369 0.183333
1.68122 0.16601
1.67876 0.152053
1.67631 0.140735
1.67387 0.131527
1.67143 0.12403
1.669 0.117947
1.66658 0.113051
1.66416 0.109167
1.66175 0.10616
1.65935 0.103929
1.65695 0.102395
1.65457 0.101499
1.65219 0.101199
1.64981 0.101468
1.64744 0.10229
1.64508 0.103662
1.64273 0.105589
1.64038 0.10809
1.63804 0.111192
1.63571 0.114938
1.63338 0.11938
1.63106 0.124588
1.62875 0.130649
1.62644 0.137673
1.62414 0.145794
1.62184 0.15518
1.61956 0.16604
1.61727 0.178634
1.615 0.193291
1.61273 0.210429
1.61047 0.230581
1.60821 0.254443
1.60596 0.282925
1.60372 0.317244
1.60148 0.359052
1.59925 0.410633
1.59703 0.475223
1.59481 0.557515
1.5926 0.664531
1.59039 0.807147
1.58819 1.00292
1.586 1.28168
1.58381 1.6973
1.58163 2.35501
1.57945 3.48217
1.57728 5.64003
1.57512 10.4841
1.57296 23.9876
1.57081 60.9827
1.56866 51.033
1.56652 19.5047
1.56439 8.9831
1.56226 5.01113
1.56014 3.1676
1.55802 2.17688
1.55591 1.58697
1.55381 1.20857
1.55171 0.951816
1.54961 0.769817
1.54752 0.636223
1.54544 0.535322
1.54336 0.457288
1.54129 0.395722
1.53923 0.346313
1.53717 0.306075
1.53511 0.272885
1.53306 0.245199
1.53102 0.221876
1.52898 0.202056
1.52695 0.185082
1.52492 0.170443
1.5229 0.15774
1.52088 0.146656
1.51887 0.136936
1.51686 0.128374
1.51486 0.120804
1.51287 0.114086
1.51087 0.108107
1.50889 0.102772
1.50691 0.0979998
1.50494 0.0937245
1.50297 0.0898887
1.501 0.0864439
1.49904 0.0833485
1.49709 0.0805672
1.49514 0.0780692
1.4932 0.0758282
1.49126 0.0738213
1.48932 0.0720288
1.48739 0.0704336
1.48547 0.0690207
1.48355 0.0677772
1.48164 0.0666921
1.47973 0.0657555
1.47782 0.0649593
1.47593 0.0642964
1.47403 0.0637607
1.47214 0.0633473
1.47026 0.063052
1.46838 0.0628715
1.4665 0.0628035
1.46463 0.062846
1.46277 0.0629982
1.46091 0.0632595
1.45905 0.0636304
1.4572 0.0641119
1.45535 0.0647055
1.45351 0.0654138
1.45168 0.0662397
1.44984 0.067187
1.44802 0.0682605
1.44619 0.0694656
1.44437 0.0708086
1.44256 0.0722969
1.44075 0.073939
1.43895 0.0757445
1.43715 0.0777245
1.43535 0.0798914
1.43356 0.0822594
1.43177 0.0848445
1.42999 0.087665
1.42821 0.0907416
1.42644 0.0940977
1.42467 0.0977602
1.4229 0.101759
1.42114 0.10613
1.41939 0.110913
1.41764 0.116153
1.41589 0.121905
1.41415 0.128228
1.41241 0.135195
1.41067 0.142888
1.40894 0.151406
1.40722 0.160864
1.4055 0.171399
1.40378 0.183172
1.40207 0.196379
1.40036 0.211255
1.39865 0.228088
1.39695 0.247227
1.39525 0.269107
1.39356 0.294269
1.39187 0.323397
1.39019 0.357359
1.38851 0.397281
1.38683 0.444632
1.38516 0.501365
1.38349 0.57012
1.38183 0.654535
1.38017 0.759732
1.37851 0.893111
1.37686 1.06567
1.37521 1.29433
1.37357 1.60618
1.37193 2.04678
1.37029 2.69741
1.36866 3.7144
1.36703 5.42857
1.36541 8.63469
1.36379 15.5941
1.36217 34.2085
1.36056 89.4377
1.35895 100
1.35734 38.9239
1.35574 17.1738
1.35414 9.29747
1.35255 5.76079
1.35096 3.9032
1.34937 2.81504
1.34779 2.12545
1.34621 1.66191
1.34464 1.33579
1.34306 1.09789
1.3415 0.919166
1.33993 0.781589
1.33837 0.673511
1.33681 0.58713
1.33526 0.517066
1.33371 0.459515
1.33217 0.411726
1.33062 0.371672
1.32908 0.337833
1.32755 0.309055
1.32602 0.284449
1.32449 0.263323
1.32296 0.245135
1.32144 0.229459
1.31992 0.215957
1.31841 0.204365
1.3169 0.194474
1.31539 0.18613
1.31389 0.179217
1.31239 0.173664
1.31089 0.169435
1.3094 0.166537
1.30791 0.165021
1.30642 0.164991
1.30494 0.166621
1.30346 0.170173
1.30198 0.176033
1.30051 0.184768
1.29904 0.197211
1.29757 0.214616
1.29611 0.238908
1.29465 0.273157
1.29319 0.322468
1.29174 0.395813
1.29029 0.510081
1.28884 0.700031
1.2874 1.04605
1.28596 1.76553
1.28452 3.57723
1.28309 9.0946
1.28166 15.1282
1.28023 6.65775
1.2788 2.78823
1.27738 1.46428
1.27596 0.900283
1.27455 0.614499
1.27314 0.451168
1.27173 0.349468
1.27032 0.282004
1.26892 0.235044
1.26752 0.201109
1.26613 0.175857
1.26473 0.156627
1.26334 0.141722
1.26196 0.130018
1.26057 0.12075
1.25919 0.113383
1.25781 0.107542
1.25644 0.102953
1.25507 0.0994225
1.2537 0.0968104
1.25233 0.0950196
1.25097 0.0939865
1.24961 0.0936754
1.24825 0.0940754
1.2469 0.0951991
1.24555 0.0970831
1.2442 0.0997898
1.24286 0.103412
1.24151 0.108078
1.24017 0.113965
1.23884 0.121307
1.2375 0.130424
1.23617 0.141744
1.23485 0.155858
1.23352 0.173589
1.2322 0.196106
1.23088 0.22511
1.22956 0.263156
1.22825 0.314207
1.22694 0.384677
1.22563 0.485481
1.22433 0.636389
1.22302 0.87614
1.22172 1.28876
1.22043 2.08278
1.21913 3.87763
1.21784 8.91994
1.21655 22.4166
1.21527 17.7882
1.21398 6.81138
1.2127 3.17044
1.21143 1.78493
1.21015 1.13788
1.20888 0.788617
1.20761 0.579975
1.20634 0.4458
1.20508 0.354578
1.20382 0.289816
1.20256 0.242225
1.2013 0.20626
1.20005 0.178447
1.1988 0.156522
1.19755 0.138961
1.1963 0.124708
1.19506 0.113013
1.19382 0.103335
1.19258 0.0952734
1.19135 0.0885315
1.19011 0.0828853
1.18888 0.0781656
1.18765 0.0742451
1.18643 0.0710293
1.18521 0.068451
1.18399 0.0664657
1.18277 0.0650505
1.18155 0.0642031
1.18034 0.0639437
1.17913 0.0643181
1.17792 0.0654043
1.17672 0.067322
1.17551 0.0702499
1.17431 0.074451
1.17312 0.0803165
1.17192 0.0884385
1.17073 0.0997387
1.16954 0.115705
1.16835 0.138857
1.16716 0.173715
1.16598 0.229023
1.1648 0.323422
1.16362 0.502102
1.16245 0.895172
1.16127 1.96246
1.1601 5.07019
1.15893 5.14733
1.15777 1.9952
1.1566 0.903789
1.15544 0.502814
1.15428 0.320498
1.15312 0.223805
1.15197 0.166701
1.15082 0.130243
1.14966 0.10556
1.14852 0.088071
1.14737 0.0752203
1.14623 0.0654951
1.14509 0.0579543
1.14395 0.0519877
1.14281 0.0471864
1.14168 0.0432681
1.14055 0.0400332
1.13942 0.0373376
1.13829 0.0350758
1.13716 0.0331693
1.13604 0.0315591
1.13492 0.0302013
1.1338 0.0290629
1.13268 0.0281202
1.13157 0.0273568
1.13046 0.0267632
1.12935 0.0263362
1.12824 0.0260792
1.12714 0.0260035
1.12603 0.0261298
1.12493 0.0264915
1.12383 0.0271396
1.12274 0.0281519
1.12164 0.0296468
1.12055 0.0318096
1.11946 0.0349389
1.11837 0.0395381
1.11728 0.0465048
1.1162 0.0575596
1.11512 0.0763246
1.11404 0.111433
1.11296 0.187187
1.11189 0.387589
1.11081 0.990126
1.10974 1.20588
1.10867 0.484805
1.1076 0.219131
1.10654 0.124073
1.10548 0.0818118
1.10442 0.0597656
1.10336 0.04692
1.1023 0.0388236
1.10124 0.0334197
1.10019 0.0296577
1.09914 0.0269576
1.09809 0.024979
1.09704 0.0235128
1.096 0.0224252
1.09496 0.0216288
1.09392 0.021065
1.09288 0.020695
1.09184 0.0204934
1.0908 0.0204447
1.08977 0.0205411
1.08874 0.0207817
1.08771 0.0211715
1.08668 0.021722
1.08566 0.0224516
1.08464 0.023387
1.08362 0.0245657
1.0826 0.0260395
1.08158 0.0278792
1.08056 0.0301836
1.07955 0.0330918
1.07854 0.0368035
1.07753 0.0416134
1.07652 0.0479693
1.07551 0.0565775
1.07451 0.0686027
1.07351 0.0860737
1.07251 0.112774
1.07151 0.156397
1.07051 0.234472
1.06952 0.393467
1.06852 0.783411
1.06753 1.95974
1.06654 3.72668
1.06556 1.7895
1.06457 0.729213
1.06359 0.373564
1.06261 0.225785
1.06163 0.152308
1.06065 0.110956
1.05967 0.0855664
1.0587 0.0689626
1.05772 0.0575866
1.05675 0.0495189
1.05578 0.0436542
1.05482 0.0393215
1.05385 0.0360968
1.05289 0.0337035
1.05192 0.0319573
1.05096 0.0307345
1.05 0.0299521
1.04905 0.029557
1.04809 0.0295188
1.04714 0.0298254
1.04619 0.0304817
1.04524 0.0315093
1.04429 0.0329482
1.04334 0.0348604
1.0424 0.0373361
1.04146 0.0405038
1.04051 0.0445454
1.03957 0.049721
1.03864 0.0564093
1.0377 0.0651747
1.03677 0.0768847
1.03583 0.0929236
1.0349 0.115606
1.03397 0.149031
1.03304 0.201001
1.03212 0.287807
1.03119 0.447882
1.03027 0.787963
1.02935 1.67175
1.02843 4.35348
1.02751 5.92326
1.0266 2.40133
1.02568 1.03143
1.02477 0.548963
1.02386 0.337472
1.02295 0.228194
1.02204 0.164893
1.02113 0.125089
1.02023 0.0984796
1.01933 0.0798285
1.01843 0.066255
1.01753 0.0560705
1.01663 0.0482333
1.01573 0.0420728
1.01483 0.0371417
1.01394 0.0331326
1.01305 0.0298286
1.01216 0.027073
1.01127 0.0247506
1.01038 0.0227748
1.0095 0.02108
1.00861 0.0196153
1.00773 0.0183409
1.00685 0.0172256
1.00597 0.0162441
1.00509 0.0153762
1.00422 0.0146054
1.00334 0.0139182
1.00247 0.0133034
1.0016 0.0127518
1.00072 0.0122556
0.999856 0.0118082
0.998989 0.0114042
0.998123 0.011039
0.997259 0.0107085
0.996396 0.0104094
0.995535 0.0101388
0.994675 0.00989435
0.993817 0.00967385
0.99296 0.0094756
0.992104 0.00929813
0.991251 0.00914023
0.990398 0.0090009
0.989547 0.00887938
0.988698 0.00877511
0.98785 0.00868772
0.987004 0.00861704
0.986159 0.00856313
0.985315 0.00852623
0.984473 0.00850685
0.983632 0.00850575
0.982793 0.00852399
0.981955 0.00856302
0.981119 0.00862469
0.980284 0.00871139
0.97945 0.00882619
0.978618 0.00897297
0.977788 0.0091567
0.976958 0.00938376
0.976131 0.00966237
0.975304 0.0100033
0.974479 0.0104209
0.973655 0.0109341
0.972833 0.0115692
0.972012 0.0123624
0.971193 0.0133658
0.970375 0.014655
0.969558 0.0163449
0.968743 0.0186151
0.967929 0.02176
0.967117 0.0262884
0.966305 0.0331406
0.965496 0.0442068
0.964687 0.0637293
0.96388 0.10273
0.963074 0.195926
0.96227 0.472436
0.961467 1.00087
0.960665 0.543195
0.959865 0.219031
0.959066 0.11198
0.958269 0.0686914
0.957472 0.0476357
0.956677 0.0360194
0.955884 0.0290397
0.955091 0.0245973
0.9543 0.0216653
0.953511 0.0196966
0.952722 0.0183808
0.951935 0.0175335
0.951149 0.0170421
0.950365 0.0168375
0.949582 0.0168786
0.9488 0.0171442
0.948019 0.0176281
0.94724 0.018337
0.946462 0.0192906
0.945685 0.020522
0.94491 0.0220817
0.944136 0.024042
0.943363 0.0265056
0.942591 0.0296191
0.941821 0.0335945
0.941052 0.0387457
0.940284 0.0455505
0.939517 0.0547629
0.938752 0.0676273
0.937988 0.0863106
0.937225 0.114853
0.936464 0.161467
0.935704 0.244852
0.934944 0.414527
0.934187 0.830197
0.93343 2.08342
0.932675 3.99057
0.931921 1.92256
0.931168 0.778892
0.930416 0.395546
0.929666 0.236397
0.928916 0.157287
0.928168 0.112744
0.927421 0.085361
0.926676 0.0674119
0.925931 0.0550682
0.925188 0.0462652
0.924446 0.0398134
0.923705 0.0349906
0.922966 0.0313401
0.922227 0.0285638
0.92149 0.0264628
0.920754 0.0249036
0.920019 0.0237972
0.919286 0.0230878
0.918553 0.0227453
0.917822 0.0227623
0.917092 0.0231544
0.916363 0.0239623
0.915635 0.0252594
0.914908 0.027164
0.914183 0.029862
0.913458 0.0336461
0.912735 0.0389892
0.912013 0.0466841
0.911292 0.0581325
0.910572 0.0759869
0.909854 0.105738
0.909136 0.160176
0.90842 0.274215
0.907705 0.56454
0.906991 1.44944
0.906278 2.25378
0.905566 0.959538
0.904855 0.405701
0.904146 0.214387
0.903437 0.132089
0.90273 0.0901349
0.902024 0.0660828
0.901318 0.0510956
0.900614 0.0411693
0.899912 0.0342879
0.89921 0.0293509
0.898509 0.0257184
0.897809 0.0229993
0.897111 0.0209454
0.896414 0.0193946
0.895717 0.0182395
0.895022 0.0174092
0.894328 0.0168586
0.893635 0.0165624
0.892943 0.0165119
0.892252 0.0167144
0.891562 0.017195
0.890873 0.0180004
0.890186 0.0192079
0.889499 0.02094
0.888813 0.0233913
0.888129 0.0268784
0.887446 0.0319359
0.886763 0.0395182
0.886082 0.0514515
0.885402 0.0715716
0.884722 0.108988
0.884044 0.189222
0.883367 0.400027
0.882691 1.03636
0.882016 1.31587
0.881342 0.527408
0.880669 0.231603
0.879997 0.126418
0.879326 0.0799284
0.878656 0.0557918
0.877988 0.0417872
0.87732 0.0329958
0.876653 0.027152
0.875987 0.0231016
0.875322 0.0202088
0.874659 0.018102
0.873996 0.0165537
0.873334 0.0154199
0.872674 0.0146078
0.872014 0.0140578
0.871355 0.0137332
0.870697 0.0136142
0.870041 0.0136957
0.869385 0.0139861
0.86873 0.0145087
0.868077 0.0153062
0.867424 0.0164471
0.866772 0.0180395
0.866121 0.0202547
0.865472 0.0233704
0.864823 0.0278565
0.864175 0.0345518
0.863528 0.0450657
0.862882 0.0627897
0.862237 0.0958155
0.861593 0.166953
0.86095 0.355159
0.860308 0.91989
0.859667 1.10964
0.859027 0.440902
0.858388 0.195807
0.85775 0.108087
0.857113 0.0691384
0.856477 0.0488952
0.855841 0.0371801
0.855207 0.029877
0.854574 0.0250847
0.853941 0.0218334
0.85331 0.0195903
0.852679 0.0180458
0.85205 0.0170134
0.851421 0.016379
0.850793 0.0160741
0.850166 0.0160612
0.84954 0.0163264
0.848915 0.0168764
0.848291 0.0177381
0.847668 0.0189626
0.847046 0.0206317
0.846425 0.0228714
0.845804 0.0258751
0.845185 0.0299432
0.844566 0.0355581
0.843949 0.0435265
0.843332 0.0552743
0.842716 0.0735043
0.842101 0.103827
0.841487 0.159367
0.840874 0.276169
0.840262 0.575525
0.839651 1.48721
0.83904 2.20954
0.838431 0.922808
0.837822 0.392262
0.837214 0.207837
0.836607 0.128033
0.836001 0.0872158
0.835396 0.0637872
0.834792 0.0491992
0.834189 0.039564
0.833586 0.0329196
0.832985 0.0281939
0.832384 0.0247643
0.831784 0.0222517
0.831185 0.020418
0.830587 0.0191113
0.82999 0.0182355
0.829394 0.0177337
0.828798 0.0175792
0.828204 0.0177717
0.82761 0.0183382
0.827017 0.0193381
0.826425 0.0208752
0.825834 0.0231191
0.825243 0.0263471
0.824654 0.0310214
0.824065 0.0379477
0.823477 0.0486157
0.82289 0.0660128
0.822304 0.0968022
0.821719 0.158139
0.821135 0.303422
0.820551 0.73092
0.819968 1.6281
0.819386 0.941847
0.818805 0.370716
0.818225 0.182698
0.817645 0.107362
0.817067 0.0708012
0.816489 0.0505222
0.815912 0.0381609
0.815336 0.0300854
0.81476 0.0245244
0.814186 0.0205336
0.813612 0.0175735
0.813039 0.0153179
0.812467 0.0135605
0.811896 0.0121658
0.811326 0.0110416
0.810756 0.0101236
0.810187 0.00936595
0.809619 0.00873512
0.809052 0.00820623
0.808485 0.00776052
0.80792 0.00738366
0.807355 0.00706459
0.806791 0.0067947
0.806228 0.00656724
0.805665 0.00637691
0.805103 0.00621956
0.804543 0.00609196
0.803983 0.00599164
0.803423 0.00591676
0.802865 0.00586604
0.802307 0.00583869
0.80175 0.00583439
0.801194 0.00585325
0.800638 0.00589585
0.800084 0.00596324
0.79953 0.00605699
0.798977 0.00617925
0.798425 0.00633289
0.797873 0.00652159
0.797322 0.00675003
0.796772 0.0070242
0.796223 0.00735167
0.795674 0.00774214
0.795127 0.00820805
0.79458 0.00876554
0.794034 0.00943575
0.793488 0.0102468
0.792943 0.0112366
0.792399 0.0124574
0.791856 0.0139823
0.791314 0.0159164
0.790772 0.0184154
0.790231 0.0217166
0.789691 0.0261972
0.789152 0.0324851
0.788613 0.0416862
0.788075 0.0558937
0.787538 0.079447
0.787001 0.122487
0.786465 0.212827
0.78593 0.443942
0.785396 1.14781
0.784863 1.72082
0.78433 0.720615
0.783798 0.305455
0.783266 0.161335
0.782736 0.0990567
0.782206 0.0672335
0.781677 0.0489786
0.781148 0.0376148
0.78062 0.0301074
0.780093 0.0249258
0.779567 0.0212339
0.779041 0.0185459
0.778516 0.0165665
0.777992 0.01511
0.777469 0.0140579
0.776946 0.013336
0.776424 0.0129009
0.775903 0.0127341
0.775382 0.0128402
0.774862 0.0132492
0.774343 0.0140249
0.773824 0.0152818
0.773307 0.0172194
0.772789 0.0201922
0.772273 0.0248617
0.771757 0.0325606
0.771242 0.0462695
0.770728 0.0736783
0.770214 0.138775
0.769701 0.330668
0.769189 0.727622
0.768677 0.417436
0.768167 0.166576
0.767656 0.0840117
0.767147 0.0509385
0.766638 0.0349495
0.76613 0.0261633
0.765622 0.0209025
0.765115 0.0175714
0.764609 0.015395
0.764104 0.0139646
0.763599 0.0130522
0.763095 0.0125274
0.762591 0.0123166
0.762089 0.0123834
0.761587 0.0127187
0.761085 0.0133376
0.760584 0.0142807
0.760084 0.0156203
0.759585 0.0174741
0.759086 0.0200292
0.758588 0.0235886
0.75809 0.0286588
0.757594 0.0361307
0.757097 0.047679
0.756602 0.0667382
0.756107 0.101211
0.755613 0.17232
0.755119 0.349651
0.754627 0.888308
0.754134 1.55491
0.753643 0.702273
0.753152 0.289809
0.752661 0.149758
0.752172 0.0906385
0.751683 0.0609009
0.751194 0.0440166
0.750707 0.0335743
0.75022 0.0267016
0.749733 0.0219652
0.749247 0.0185887
0.748762 0.0161243
0.748278 0.0143009
0.747794 0.0129493
0.74731 0.0119621
0.746828 0.0112729
0.746346 0.0108445
0.745864 0.0106632
0.745383 0.0107392
0.744903 0.0111102
0.744424 0.0118531
0.743945 0.0131087
0.743467 0.0151327
0.742989 0.0184073
0.742512 0.0239109
0.742035 0.0338432
0.74156 0.0539125
0.741084 0.102044
0.74061 0.244896
0.740136 0.52643
0.739662 0.291054
0.73919 0.116384
0.738718 0.0586647
0.738246 0.0352964
0.737775 0.0238572
0.737305 0.0174638
0.736835 0.0135385
0.736366 0.0109558
0.735898 0.00916428
0.73543 0.00786912
0.734962 0.00690126
0.734496 0.00615828
0.734029 0.00557521
0.733564 0.00510926
0.733099 0.00473133
0.732635 0.00442106
0.732171 0.0041639
0.731708 0.00394924
0.731245 0.0037692
0.730783 0.00361785
0.730322 0.00349072
0.729861 0.00338438
0.729401 0.00329619
0.728941 0.00322416
0.728482 0.00316681
0.728024 0.00312305
0.727566 0.00309215
0.727109 0.00307369
0.726652 0.00306755
0.726196 0.00307386
0.725741 0.00309308
0.725286 0.00312594
0.724831 0.00317353
0.724377 0.00323737
0.723924 0.00331944
0.723471 0.00342234
0.723019 0.00354945
0.722568 0.00370516
0.722117 0.00389518
0.721667 0.00412705
0.721217 0.00441077
0.720767 0.00475982
0.720319 0.00519274
0.719871 0.0057354
0.719423 0.00642486
0.718976 0.00731563
0.71853 0.00849042
0.718084 0.0100796
0.717638 0.0122981
0.717194 0.0155202
0.716749 0.0204441
0.716306 0.0284901
0.715863 0.0428955
0.71542 0.0722472
0.714978 0.144293
0.714537 0.361724
0.714096 0.685226
0.713656 0.327718
0.713216 0.133474
0.712776 0.068285
0.712338 0.0411818
0.7119 0.0277057
0.711462 0.0201276
0.711025 0.0154846
0.710588 0.0124614
0.710152 0.0104069
0.709717 0.00897117
0.709282 0.00795479
0.708848 0.00723932
0.708414 0.0067535
0.707981 0.00645595
0.707548 0.00632635
0.707116 0.00636192
0.706684 0.00657766
0.706253 0.00701103
0.705822 0.00773294
0.705392 0.00887106
0.704962 0.0106594
0.704533 0.013551
0.704105 0.0185014
0.703677 0.0277818
0.703249 0.0477498
0.702823 0.100237
0.702396 0.258989
0.70197 0.33273
0.701545 0.133802
0.70112 0.0586924
0.700696 0.0319986
0.700272 0.0201908
0.699849 0.0140425
0.699426 0.0104557
0.699004 0.00818441
0.698582 0.00665504
0.698161 0.00557502
0.69774 0.00478286
0.69732 0.00418363
0.6969 0.00371864
0.696481 0.00335
0.696062 0.0030524
0.695644 0.00280838
0.695226 0.00260561
0.694809 0.00243517
0.694392 0.00229047
0.693976 0.00216659
0.693561 0.00205975
0.693146 0.00196707
0.692731 0.00188627
0.692317 0.00181558
0.691903 0.00175359
0.69149 0.00169918
0.691077 0.00165147
0.690665 0.00160976
0.690254 0.0015735
0.689842 0.00154229
0.689432 0.00151583
0.689022 0.00149396
0.688612 0.00147662
0.688203 0.00146384
0.687794 0.00145582
0.687386 0.00145288
0.686978 0.00145554
0.686571 0.00146455
0.686164 0.00148099
0.685758 0.00150634
0.685352 0.00154275
0.684947 0.00159322
0.684542 0.00166218
0.684138 0.00175616
0.683734 0.00188521
0.683331 0.00206532
0.682928 0.00232316
0.682526 0.00270573
0.682124 0.00330212
0.681722 0.00429713
0.681321 0.0061232
0.680921 0.00996828
0.680521 0.019832
0.680121 0.0498715
0.679722 0.0734004
0.679324 0.0311296
0.678926 0.0137512
0.678528 0.0077112
0.678131 0.00510136
0.677734 0.00377193
0.677338 0.00301553
0.676942 0.00255244
0.676547 0.00225585
0.676152 0.00206235
0.675758 0.00193802
0.675364 0.00186413
0.67497 0.00183057
0.674577 0.00183281
0.674185 0.00187056
0.673793 0.00194761
0.673401 0.00207262
0.67301 0.00226135
0.67262 0.00254116
0.672229 0.00296039
0.67184 0.00360876
0.67145 0.00466572
0.671062 0.00652935
0.670673 0.0102158
0.670285 0.018852
0.669898 0.0440087
0.669511 0.100936
0.669124 0.0628521
0.668738 0.0249131
0.668353 0.0124573
0.667967 0.00753196
0.667583 0.00516819
0.667198 0.00387118
0.666814 0.00309081
0.666431 0.0025903
0.666048 0.00225521
0.665666 0.00202533
0.665283 0.00186705
0.664902 0.00176103
0.664521 0.00169626
0.66414 0.00166726
0.66376 0.0016728
0.66338 0.00171576
0.663 0.00180414
0.662621 0.00195356
0.662243 0.00219288
0.661865 0.00257656
0.661487 0.00321403
0.66111 0.0043477
0.660733 0.00659316
0.660357 0.0118305
0.659981 0.0269935
0.659605 0.0629544
0.65923 0.041372
0.658855 0.0164471
0.658481 0.0082611
0.658107 0.00504803
0.657734 0.00351233
0.657361 0.00267047
0.656989 0.00216297
0.656617 0.00183587
0.656245 0.00161497
0.655874 0.00146132
0.655503 0.00135311
0.655133 0.00127775
0.654763 0.00122793
0.654393 0.00119985
0.654024 0.00119233
0.653655 0.00120667
0.653287 0.00124724
0.652919 0.00132299
0.652552 0.00145097
0.652185 0.00166427
0.651818 0.00203161
0.651452 0.00271181
0.651086 0.00413171
0.650721 0.00768961
0.650356 0.0185186
0.649991 0.0321885
0.649627 0.0149404
0.649264 0.00650584
0.6489 0.00364035
0.648538 0.00242858
0.648175 0.00181671
0.647813 0.0014673
0.647451 0.00124962
0.64709 0.00110515
0.646729 0.00100473
0.646369 0.000932638
0.646009 0.000879855
0.645649 0.000841044
0.64529 0.000813028
0.644931 0.000794045
0.644573 0.000783413
0.644215 0.000781474
0.643858 0.000789838
0.6435 0.000812086
0.643144 0.000855442
0.642787 0.000934814
0.642431 0.00108364
0.642076 0.00138742
0.64172 0.00210873
0.641366 0.00421809
0.641011 0.00910931
0.640657 0.00598342
0.640304 0.00265597
0.639951 0.00156024
0.639598 0.00112566
0.639245 0.000915234
0.638893 0.000797951
0.638542 0.000725741
0.63819 0.000677942
0.63784 0.000644565
0.637489 0.000620346
0.637139 0.000602327
0.636789 0.000588783
0.63644 0.000578706
0.636091 0.000571556
0.635743 0.000567145
0.635395 0.000565627
0.635047 0.000567587
0.6347 0.000574286
0.634353 0.000588244
0.634006 0.000614661
0.63366 0.000665213
0.633314 0.000769883
0.632969 0.00102127
0.632624 0.00176243
0.632279 0.00342141
0.631935 0.00227526
0.631591 0.00117512
0.631247 0.000811962
0.630904 0.000666417
0.630561 0.000595144
0.630219 0.000554918
0.629877 0.000529799
0.629535 0.000512917
0.629194 0.000500948
0.628853 0.000492148
0.628512 0.00048555
0.628172 0.000480608
0.627833 0.000477034
0.627493 0.00047472
0.627154 0.000473717
0.626815 0.00047426
0.626477 0.000476859
0.626139 0.000482493
0.625802 0.000493087
0.625464 0.00051267
0.625128 0.000550647
0.624791 0.00063263
0.624455 0.0008438
0.624119 0.00149191
0.623784 0.00214059
0.623449 0.00116324
0.623114 0.00073061
0.62278 0.000580673
0.622446 0.000515458
0.622113 0.000481448
0.62178 0.000461247
0.621447 0.000448029
0.621114 0.000438708
0.620782 0.000431735
0.620451 0.000426261
0.620119 0.000421792
0.619788 0.000418024
0.619457 0.000414763
0.619127 0.000411878
0.618797 0.000409281
0.618468 0.000406909
0.618138 0.000404715
0.61781 0.000402666
0.617481 0.000400737
0.617153 0.000398908
0.616825 0.000397166
0.616498 0.000395497
0.616171 0.000393892
0.615844 0.000392345
0.615517 0.000390849
0.615191 0.000389399
0.614866 0.000387992
0.61454 0.000386623
0.614215 0.000385292
0.613891 0.000383994
0.613566 0.00038273
0.613242 0.000381497
0.612919 0.000380295
0.612595 0.000379122
0.612273 0.000377979
0.61195 0.000376866
0.611628 0.000375782
0.611306 0.000374729
0.610984 0.000373706
0.610663 0.000372716
0.610342 0.00037176
0.610022 0.000370839
0.609702 0.000369956
0.609382 0.000369115
0.609062 0.000368318
0.608743 0.000367571
0.608424 0.000366879
0.608106 0.000366249
0.607788 0.000365689
0.60747 0.00036521
0.607152 0.000364825
0.606835 0.000364551
0.606518 0.000364408
0.606202 0.000364425
0.605886 0.000364636
0.60557 0.000365088
0.605255 0.000365844
0.604939 0.000366989
0.604625 0.000368644
0.60431 0.00037098
0.603996 0.000374248
0.603682 0.000378832
0.603369 0.000385334
0.603056 0.000394749
0.602743 0.000408814
0.60243 0.000430774
0.602118 0.000467255
0.601806 0.00053342
0.601495 0.000669736
0.601184 0.0010079
0.600873 0.00203337
0.600562 0.00343171
0.600252 0.00177143
0.599942 0.000922229
0.599633 0.000635374
0.599324 0.000515026
0.599015 0.000454749
0.598706 0.000420679
0.598398 0.000399776
0.59809 0.000386249
0.597782 0.000377253
0.597475 0.000371296
0.597168 0.000367581
0.596861 0.00036572
0.596555 0.000365606
0.596249 0.000367392
0.595943 0.00037154
0.595638 0.000378996
0.595333 0.000391594
0.595028 0.000413019
0.594724 0.000451323
0.59442 0.000526501
0.594116 0.000697746
0.593812 0.00117911
0.593509 0.00248988
0.593206 0.00210095
0.592904 0.00100029
0.592602 0.000633182
0.5923 0.000493636
0.591998 0.000428278
0.591697 0.00039275
0.591396 0.000371304
0.591095 0.000357334
0.590795 0.00034771
0.590495 0.000340807
0.590195 0.000335724
0.589896 0.000331948
0.589597 0.000329186
0.589298 0.000327297
0.588999 0.000326264
0.588701 0.000326208
0.588403 0.000327459
0.588106 0.000330742
0.587808 0.000337668
0.587511 0.000352175
0.587215 0.000385543
0.586918 0.000477285
0.586622 0.000751752
0.586326 0.000799828
0.586031 0.000495823
0.585736 0.000387176
0.585441 0.000347188
0.585146 0.000328723
0.584852 0.000318618
0.584558 0.000312368
0.584265 0.000308135
0.583971 0.000305066
0.583678 0.000302726
0.583385 0.000300878
0.583093 0.000299388
0.582801 0.000298186
0.582509 0.00029724
0.582217 0.00029656
0.581926 0.000296197
0.581635 0.000296275
0.581344 0.000297058
0.581054 0.000299127
0.580764 0.000303916
0.580474 0.000315577
0.580185 0.000348841
0.579895 0.000446758
0.579607 0.000444744
0.579318 0.000345891
0.57903 0.000311368
0.578742 0.000298181
0.578454 0.000291779
0.578166 0.000288048
0.577879 0.000285559
0.577592 0.000283722
0.577306 0.000282261
0.577019 0.000281032
0.576733 0.000279955
0.576448 0.000278982
0.576162 0.000278084