File: data/xrd/rs_1.43_xrd.dat
2.29256 0.0947054
2.28799 0.110787
2.28343 0.13153
2.27889 0.158928
2.27438 0.196154
2.26987 0.248517
2.26539 0.325424
2.26093 0.444808
2.25648 0.644203
2.25205 1.01243
2.24764 1.7972
2.24324 3.84653
2.23886 10.0489
2.2345 13.2162
2.23016 5.30452
2.22583 2.28525
2.22152 1.21687
2.21722 0.746624
2.21295 0.503034
2.20868 0.361738
2.20444 0.272846
2.20021 0.21343
2.196 0.171816
2.1918 0.14157
2.18762 0.118918
2.18346 0.101527
2.17931 0.0878948
2.17518 0.0770201
2.17106 0.0682132
2.16696 0.0609877
2.16288 0.0549921
2.15881 0.0499679
2.15475 0.0457212
2.15071 0.0421045
2.14669 0.0390038
2.14268 0.0363303
2.13868 0.0340136
2.1347 0.0319975
2.13074 0.0302369
2.12679 0.028695
2.12285 0.0273418
2.11893 0.0261526
2.11502 0.0251069
2.11113 0.0241876
2.10725 0.0233805
2.10339 0.0226738
2.09954 0.0220574
2.09571 0.0215231
2.09188 0.0210637
2.08808 0.0206736
2.08428 0.020348
2.0805 0.0200829
2.07674 0.0198754
2.07298 0.019723
2.06925 0.0196242
2.06552 0.019578
2.06181 0.0195839
2.05811 0.0196425
2.05442 0.0197545
2.05075 0.0199217
2.04709 0.0201465
2.04345 0.0204323
2.03981 0.0207832
2.03619 0.0212048
2.03259 0.0217036
2.02899 0.0222879
2.02541 0.022968
2.02184 0.0237562
2.01828 0.0246681
2.01474 0.0257224
2.01121 0.0269429
2.00769 0.028359
2.00418 0.0300078
2.00069 0.0319367
1.9972 0.0342063
1.99373 0.0368958
1.99027 0.0401098
1.98683 0.0439883
1.98339 0.0487227
1.97997 0.0545798
1.97656 0.0619401
1.97316 0.071361
1.96977 0.0836859
1.9664 0.100238
1.96303 0.123188
1.95968 0.156295
1.95634 0.206514
1.95301 0.28786
1.94969 0.431866
1.94638 0.720729
1.94309 1.41444
1.9398 3.48
1.93653 7.29262
1.93327 3.85466
1.93002 1.53495
1.92677 0.76663
1.92354 0.45388
1.92033 0.300547
1.91712 0.215016
1.91392 0.162758
1.91073 0.12863
1.90756 0.10519
1.90439 0.0884489
1.90123 0.0761163
1.89809 0.0668041
1.89496 0.0596316
1.89183 0.054019
1.88872 0.0495719
1.88561 0.0460152
1.88252 0.0431522
1.87944 0.0408394
1.87636 0.0389707
1.8733 0.0374661
1.87025 0.0362648
1.86721 0.03532
1.86417 0.0345957
1.86115 0.0340637
1.85814 0.0337023
1.85513 0.0334947
1.85214 0.0334282
1.84915 0.0334931
1.84618 0.0336828
1.84321 0.0339931
1.84026 0.0344216
1.83731 0.0349683
1.83437 0.0356348
1.83145 0.0364245
1.82853 0.0373431
1.82562 0.0383977
1.82272 0.039598
1.81983 0.0409559
1.81695 0.0424861
1.81408 0.0442065
1.81121 0.0461386
1.80836 0.0483083
1.80552 0.050747
1.80268 0.0534925
1.79985 0.0565908
1.79703 0.0600979
1.79422 0.0640822
1.79142 0.0686287
1.78863 0.0738428
1.78585 0.0798572
1.78307 0.0868402
1.78031 0.0950083
1.77755 0.104643
1.7748 0.116115
1.77206 0.129923
1.76933 0.146748
1.76661 0.167539
1.76389 0.19365
1.76119 0.22707
1.75849 0.27081
1.7558 0.329601
1.75312 0.411225
1.75044 0.529186
1.74778 0.708565
1.74512 1.0001
1.74247 1.51861
1.73983 2.56563
1.7372 5.10394
1.73457 12.7107
1.73195 25.5823
1.72934 12.8954
1.72674 5.16467
1.72415 2.59057
1.72156 1.53263
1.71898 1.01038
1.71641 0.717621
1.71385 0.538093
1.7113 0.4205
1.70875 0.339527
1.70621 0.281558
1.70368 0.238757
1.70115 0.206364
1.69863 0.181354
1.69613 0.161731
1.69362 0.14614
1.69113 0.13363
1.68864 0.123525
1.68616 0.115331
1.68369 0.108682
1.68122 0.103304
1.67876 0.0989879
1.67631 0.0955757
1.67387 0.0929452
1.67143 0.0910032
1.669 0.0896789
1.66658 0.0889196
1.66416 0.0886874
1.66175 0.0889574
1.65935 0.0897156
1.65695 0.0909582
1.65457 0.0926912
1.65219 0.0949302
1.64981 0.0977008
1.64744 0.101039
1.64508 0.104994
1.64273 0.109626
1.64038 0.115014
1.63804 0.121254
1.63571 0.128469
1.63338 0.136806
1.63106 0.146454
1.62875 0.157646
1.62644 0.170675
1.62414 0.185917
1.62184 0.203851
1.61956 0.225103
1.61727 0.250492
1.615 0.281119
1.61273 0.318477
1.61047 0.364638
1.60821 0.422544
1.60596 0.496477
1.60372 0.592867
1.60148 0.721716
1.59925 0.899263
1.59703 1.15326
1.59481 1.53423
1.5926 2.14193
1.59039 3.19471
1.58819 5.24138
1.586 9.93898
1.58381 23.3626
1.58163 56.9605
1.57945 40.0679
1.57728 15.3885
1.57512 7.27272
1.57296 4.12771
1.57081 2.63902
1.56866 1.82805
1.56652 1.34046
1.56439 1.02544
1.56226 0.810501
1.56014 0.657482
1.55802 0.544766
1.55591 0.45939
1.55381 0.393206
1.55171 0.340885
1.54961 0.298827
1.54752 0.264527
1.54544 0.236201
1.54336 0.21255
1.54129 0.19261
1.53923 0.175654
1.53717 0.161125
1.53511 0.148591
1.53306 0.137712
1.53102 0.128219
1.52898 0.119895
1.52695 0.112564
1.52492 0.106085
1.5229 0.100339
1.52088 0.0952284
1.51887 0.0906723
1.51686 0.0866024
1.51486 0.0829612
1.51287 0.0797
1.51087 0.0767773
1.50889 0.0741577
1.50691 0.0718108
1.50494 0.0697105
1.50297 0.0678343
1.501 0.0661627
1.49904 0.0646789
1.49709 0.0633683
1.49514 0.0622183
1.4932 0.061218
1.49126 0.0603581
1.48932 0.0596304
1.48739 0.0590281
1.48547 0.0585454
1.48355 0.0581774
1.48164 0.0579201
1.47973 0.0577703
1.47782 0.0577256
1.47593 0.0577843
1.47403 0.0579453
1.47214 0.0582083
1.47026 0.0585734
1.46838 0.0590417
1.4665 0.0596145
1.46463 0.0602941
1.46277 0.0610834
1.46091 0.0619859
1.45905 0.0630059
1.4572 0.0641484
1.45535 0.0654195
1.45351 0.066826
1.45168 0.0683757
1.44984 0.0700777
1.44802 0.0719423
1.44619 0.073981
1.44437 0.076207
1.44256 0.0786354
1.44075 0.0812831
1.43895 0.0841694
1.43715 0.0873161
1.43535 0.0907482
1.43356 0.094494
1.43177 0.098586
1.42999 0.103061
1.42821 0.107963
1.42644 0.11334
1.42467 0.119249
1.4229 0.125757
1.42114 0.132942
1.41939 0.140893
1.41764 0.149717
1.41589 0.159542
1.41415 0.170517
1.41241 0.182824
1.41067 0.196679
1.40894 0.212349
1.40722 0.230157
1.4055 0.250504
1.40378 0.273889
1.40207 0.300941
1.40036 0.332462
1.39865 0.369484
1.39695 0.413358
1.39525 0.465873
1.39356 0.529447
1.39187 0.607403
1.39019 0.704412
1.38851 0.827203
1.38683 0.985753
1.38516 1.19536
1.38349 1.48041
1.38183 1.88174
1.38017 2.47176
1.37851 3.38867
1.37686 4.92216
1.37521 7.75912
1.37357 13.8204
1.37193 29.7002
1.37029 77.6745
1.36866 100
1.36703 39.9185
1.36541 17.2402
1.36379 9.19066
1.36217 5.6378
1.36056 3.79378
1.35895 2.72258
1.35734 2.04791
1.35574 1.59652
1.35414 1.28011
1.35255 1.04996
1.35096 0.877468
1.34937 0.744948
1.34779 0.641008
1.34621 0.558043
1.34464 0.490823
1.34306 0.435655
1.3415 0.389874
1.33993 0.35152
1.33837 0.319125
1.33681 0.291575
1.33526 0.268012
1.33371 0.247771
1.33217 0.23033
1.33062 0.215276
1.32908 0.202285
1.32755 0.191099
1.32602 0.18152
1.32449 0.173392
1.32296 0.166606
1.32144 0.161084
1.31992 0.156791
1.31841 0.153725
1.3169 0.151928
1.31539 0.15149
1.31389 0.152565
1.31239 0.15539
1.31089 0.160317
1.3094 0.167867
1.30791 0.178813
1.30642 0.194327
1.30494 0.216229
1.30346 0.247453
1.30198 0.292951
1.30051 0.361575
1.29904 0.47036
1.29757 0.655379
1.29611 1.00327
1.29465 1.76048
1.29319 3.78785
1.29174 9.80968
1.29029 10.9968
1.28884 4.31465
1.2874 1.93169
1.28596 1.0686
1.28452 0.680779
1.28309 0.476845
1.28166 0.357207
1.28023 0.281275
1.2788 0.230174
1.27738 0.194211
1.27596 0.168004
1.27455 0.148382
1.27314 0.133377
1.27173 0.121721
1.27032 0.11257
1.26892 0.105343
1.26752 0.0996365
1.26613 0.0951627
1.26473 0.0917166
1.26334 0.0891516
1.26196 0.0873654
1.26057 0.0862893
1.25919 0.0858826
1.25781 0.0861284
1.25644 0.0870319
1.25507 0.0886198
1.2537 0.0909425
1.25233 0.0940763
1.25097 0.0981291
1.24961 0.103248
1.24825 0.109631
1.2469 0.117545
1.24555 0.127346
1.2442 0.139526
1.24286 0.154759
1.24151 0.174
1.24017 0.198623
1.23884 0.230665
1.2375 0.273244
1.23617 0.331318
1.23485 0.413153
1.23352 0.533337
1.2322 0.719533
1.23088 1.02923
1.22956 1.59718
1.22825 2.79457
1.22694 5.87457
1.22563 15.2491
1.22433 22.1522
1.22302 9.16022
1.22172 3.89143
1.22043 2.05323
1.21913 1.25461
1.21784 0.844546
1.21655 0.608099
1.21527 0.459953
1.21398 0.361214
1.2127 0.292198
1.21143 0.24211
1.21015 0.204639
1.20888 0.175901
1.20761 0.153402
1.20634 0.135483
1.20508 0.121004
1.20382 0.109167
1.20256 0.0993952
1.2013 0.0912686
1.20005 0.0844745
1.1988 0.0787787
1.19755 0.074004
1.1963 0.0700169
1.19506 0.0667173
1.19382 0.0640323
1.19258 0.0619119
1.19135 0.0603264
1.19011 0.0592658
1.18888 0.0587402
1.18765 0.0587825
1.18643 0.0594536
1.18521 0.0608501
1.18399 0.0631184
1.18277 0.0664759
1.18155 0.071247
1.18034 0.0779232
1.17913 0.0872695
1.17792 0.100519
1.17672 0.119752
1.17551 0.148689
1.17431 0.194489
1.17312 0.272308
1.17192 0.418547
1.17073 0.736732
1.16954 1.58843
1.16835 4.11866
1.16716 4.62286
1.16598 1.81219
1.1648 0.809419
1.16362 0.446236
1.16245 0.283017
1.16127 0.197139
1.1601 0.146702
1.15893 0.114629
1.15777 0.092979
1.1566 0.0776724
1.15544 0.0664447
1.15428 0.0579596
1.15312 0.0513879
1.15197 0.0461936
1.15082 0.042018
1.14966 0.0386143
1.14852 0.0358082
1.14737 0.033474
1.14623 0.0315201
1.14509 0.0298785
1.14395 0.0284984
1.14281 0.0273422
1.14168 0.0263822
1.14055 0.0255988
1.13942 0.0249792
1.13829 0.0245169
1.13716 0.0242115
1.13604 0.0240694
1.13492 0.0241047
1.1338 0.0243414
1.13268 0.024817
1.13157 0.0255884
1.13046 0.0267415
1.12935 0.0284078
1.12824 0.0307938
1.12714 0.0342357
1.12603 0.0393069
1.12493 0.0470468
1.12383 0.0594889
1.12274 0.0810341
1.12164 0.122564
1.12055 0.216238
1.11946 0.478265
1.11837 1.19216
1.11728 0.985494
1.1162 0.384577
1.11512 0.184345
1.11404 0.108555
1.11296 0.0732984
1.11189 0.0543222
1.11081 0.0430178
1.10974 0.0357755
1.10867 0.030881
1.1076 0.0274395
1.10654 0.0249491
1.10548 0.0231111
1.10442 0.0217402
1.10336 0.0207167
1.1023 0.0199617
1.10124 0.0194225
1.10019 0.0190635
1.09914 0.0188618
1.09809 0.0188032
1.09704 0.0188811
1.096 0.0190949
1.09496 0.0194501
1.09392 0.019958
1.09288 0.020637
1.09184 0.0215141
1.0908 0.0226267
1.08977 0.024027
1.08874 0.0257874
1.08771 0.0280094
1.08668 0.0308379
1.08566 0.0344839
1.08464 0.0392637
1.08362 0.0456677
1.0826 0.0544877
1.08158 0.0670671
1.08056 0.0858303
1.07955 0.115505
1.07854 0.166279
1.07753 0.263227
1.07652 0.480011
1.07551 1.08155
1.07451 2.75003
1.07351 2.37722
1.07251 0.914625
1.07151 0.424447
1.07051 0.240356
1.06952 0.155314
1.06852 0.109821
1.06753 0.0828815
1.06654 0.0657264
1.06556 0.054206
1.06457 0.0461601
1.06359 0.0403788
1.06261 0.0361442
1.06163 0.0330106
1.06065 0.0306913
1.05967 0.0289973
1.0587 0.0278025
1.05772 0.0270224
1.05675 0.0266024
1.05578 0.0265101
1.05482 0.0267308
1.05385 0.0272654
1.05289 0.0281303
1.05192 0.0293578
1.05096 0.0309999
1.05 0.0331327
1.04905 0.0358646
1.04809 0.0393496
1.04714 0.0438076
1.04619 0.0495573
1.04524 0.0570718
1.04429 0.0670742
1.04334 0.0807107
1.0424 0.0998819
1.04146 0.127918
1.04051 0.171075
1.03957 0.242193
1.03864 0.37088
1.0377 0.636894
1.03677 1.30276
1.03583 3.32748
1.0349 5.69786
1.03397 2.53617
1.03304 1.04798
1.03212 0.540946
1.03119 0.326016
1.03027 0.217521
1.02935 0.155695
1.02843 0.117281
1.02751 0.0918325
1.0266 0.0741216
1.02568 0.0613056
1.02477 0.0517343
1.02386 0.0443975
1.02295 0.0386493
1.02204 0.0340611
1.02113 0.0303399
1.02023 0.0272796
1.01933 0.024732
1.01843 0.0225883
1.01753 0.0207673
1.01663 0.0192072
1.01573 0.0178604
1.01483 0.0166899
1.01394 0.0156663
1.01305 0.0147663
1.01216 0.013971
1.01127 0.0132651
1.01038 0.0126362
1.0095 0.0120738
1.00861 0.0115694
1.00773 0.0111158
1.00685 0.010707
1.00597 0.0103379
1.00509 0.0100043
1.00422 0.00970243
1.00334 0.00942928
1.00247 0.00918219
1.0016 0.00895891
1.00072 0.00875755
0.999856 0.00857649
0.998989 0.00841439
0.998123 0.00827015
0.997259 0.00814287
0.996396 0.00803186
0.995535 0.00793661
0.994675 0.0078568
0.993817 0.0077923
0.99296 0.00774318
0.992104 0.00770971
0.991251 0.00769236
0.990398 0.00769191
0.989547 0.00770938
0.988698 0.00774616
0.98785 0.00780407
0.987004 0.00788542
0.986159 0.00799319
0.985315 0.00813118
0.984473 0.00830422
0.983632 0.00851859
0.982793 0.00878242
0.981955 0.00910636
0.981119 0.00950464
0.980284 0.00999642
0.97945 0.0106081
0.978618 0.0113768
0.977788 0.0123559
0.976958 0.0136244
0.976131 0.0153034
0.975304 0.0175855
0.974479 0.0207926
0.973655 0.0254943
0.972833 0.0327747
0.972012 0.0448985
0.971193 0.0672124
0.970375 0.114583
0.969558 0.237734
0.968743 0.610972
0.967929 0.821199
0.967117 0.335444
0.966305 0.147686
0.965496 0.0815743
0.964687 0.0526637
0.96388 0.0378171
0.963074 0.0293159
0.96227 0.0240733
0.961467 0.0206754
0.960665 0.0184055
0.959865 0.0168717
0.959066 0.0158471
0.958269 0.0151951
0.957472 0.0148315
0.956677 0.0147051
0.955884 0.0147861
0.955091 0.0150605
0.9543 0.0155267
0.953511 0.0161947
0.952722 0.0170855
0.951935 0.0182338
0.951149 0.0196906
0.950365 0.0215294
0.949582 0.023855
0.9488 0.0268188
0.948019 0.0306428
0.94724 0.0356618
0.946462 0.0423972
0.945685 0.0516948
0.94491 0.0649978
0.944136 0.0849269
0.943363 0.116634
0.942591 0.171338
0.941821 0.277039
0.941052 0.51749
0.940284 1.19797
0.939517 2.971
0.938752 2.2364
0.937988 0.858983
0.937225 0.404305
0.936464 0.229982
0.935704 0.148163
0.934944 0.103892
0.934187 0.0774443
0.93343 0.0604752
0.932675 0.0489974
0.931921 0.0409197
0.931168 0.0350635
0.930416 0.0307264
0.929666 0.0274705
0.928916 0.0250131
0.928168 0.0231679
0.927421 0.0218105
0.926676 0.0208586
0.925931 0.0202607
0.925188 0.019989
0.924446 0.0200362
0.923705 0.0204155
0.922966 0.0211626
0.922227 0.022342
0.92149 0.0240574
0.920754 0.0264713
0.920019 0.0298388
0.919286 0.0345704
0.918553 0.0413505
0.917822 0.0513812
0.917092 0.066919
0.916363 0.0925849
0.915635 0.138991
0.914908 0.234563
0.914183 0.472212
0.913458 1.19342
0.912735 2.12474
0.912013 0.97163
0.911292 0.400775
0.910572 0.207418
0.909854 0.126029
0.909136 0.0851635
0.90842 0.0619837
0.907705 0.047652
0.906991 0.0382156
0.906278 0.0317035
0.905566 0.0270482
0.904855 0.0236327
0.904146 0.0210817
0.903437 0.0191579
0.90273 0.0177068
0.902024 0.0166263
0.901318 0.0158491
0.900614 0.0153325
0.899912 0.0150521
0.89921 0.0149996
0.898509 0.0151817
0.897809 0.0156215
0.897111 0.0163631
0.896414 0.0174791
0.895717 0.0190853
0.895022 0.0213667
0.894328 0.0246257
0.893635 0.0293775
0.892943 0.0365494
0.892252 0.0479375
0.891562 0.0673726
0.890873 0.104141
0.890186 0.184978
0.889499 0.404346
0.888813 1.0433
0.888129 1.06121
0.887446 0.412159
0.886763 0.187375
0.886082 0.104874
0.885402 0.0674292
0.884722 0.0476308
0.884044 0.0359963
0.883367 0.0286262
0.882691 0.0236953
0.882016 0.0202625
0.881342 0.0178043
0.880669 0.0160129
0.879997 0.0146987
0.879326 0.0137417
0.878656 0.0130643
0.877988 0.0126175
0.87732 0.0123716
0.876653 0.012312
0.875987 0.0124374
0.875322 0.012759
0.874659 0.0133032
0.873996 0.0141153
0.873334 0.0152681
0.872674 0.0168765
0.872014 0.0191237
0.871355 0.0223119
0.870697 0.0269616
0.870041 0.0340267
0.869385 0.0453983
0.86873 0.0652374
0.868077 0.104066
0.867424 0.193896
0.866772 0.452578
0.866121 1.07643
0.865472 0.720259
0.864823 0.280871
0.864175 0.136661
0.863528 0.0803762
0.862882 0.0536405
0.862237 0.0390896
0.861593 0.0303953
0.86095 0.0248525
0.860308 0.0211587
0.859667 0.0186288
0.859027 0.0168774
0.858388 0.0156769
0.85775 0.014889
0.857113 0.0144291
0.856477 0.0142477
0.855841 0.0143198
0.855207 0.0146406
0.854574 0.015223
0.853941 0.0160997
0.85331 0.0173272
0.852679 0.0189948
0.85205 0.0212396
0.851421 0.0242744
0.850793 0.0284365
0.850166 0.0342807
0.84954 0.0427662
0.848915 0.0556594
0.848291 0.0764922
0.847668 0.113125
0.847046 0.185744
0.846425 0.357007
0.845804 0.859399
0.845185 1.9337
0.844566 1.13661
0.843949 0.446205
0.843332 0.219221
0.842716 0.12865
0.842101 0.0848945
0.841487 0.0607602
0.840874 0.0461614
0.840262 0.0367284
0.839651 0.0303352
0.83904 0.0258528
0.838431 0.0226401
0.837822 0.0203139
0.837214 0.0186369
0.836607 0.0174596
0.836001 0.0166881
0.835396 0.0162673
0.834792 0.0161713
0.834189 0.0163995
0.833586 0.0169767
0.832985 0.0179582
0.832384 0.0194398
0.831784 0.0215778
0.831185 0.0246258
0.830587 0.0290038
0.82999 0.0354373
0.829394 0.0452534
0.828798 0.0610754
0.828204 0.0886478
0.82761 0.142396
0.827017 0.265812
0.826425 0.618197
0.825834 1.50706
0.825243 1.07348
0.824654 0.414106
0.824065 0.197098
0.823477 0.113108
0.82289 0.0733674
0.822304 0.0517112
0.821719 0.0386788
0.821135 0.0302472
0.820551 0.0244849
0.819968 0.0203752
0.819386 0.0173423
0.818805 0.0150412
0.818225 0.013255
0.817645 0.0118418
0.817067 0.0107059
0.816489 0.00978061
0.815912 0.00901848
0.815336 0.00838501
0.81476 0.00785467
0.814186 0.00740823
0.813612 0.00703103
0.813039 0.00671179
0.812467 0.00644172
0.811896 0.00621395
0.811326 0.00602308
0.810756 0.00586489
0.810187 0.00573606
0.809619 0.00563408
0.809052 0.00555705
0.808485 0.00550365
0.80792 0.00547301
0.807355 0.00546478
0.806791 0.00547901
0.806228 0.0055162
0.805665 0.00557735
0.805103 0.00566393
0.804543 0.00577802
0.803983 0.00592238
0.803423 0.00610057
0.802865 0.00631717
0.802307 0.006578
0.80175 0.00689051
0.801194 0.00726423
0.800638 0.00771143
0.800084 0.00824813
0.79953 0.00889537
0.798977 0.00968128
0.798425 0.010644
0.797873 0.0118363
0.797322 0.0133327
0.796772 0.0152412
0.796223 0.0177228
0.795674 0.0210263
0.795127 0.0255515
0.79458 0.0319746
0.794034 0.0415097
0.793488 0.0565112
0.792943 0.0820159
0.792399 0.130299
0.791856 0.236958
0.791314 0.528633
0.790772 1.36486
0.790231 1.30652
0.789691 0.502817
0.789152 0.228462
0.788613 0.126926
0.788075 0.0805473
0.787538 0.0559233
0.787001 0.0414129
0.786465 0.0322012
0.78593 0.0260256
0.785396 0.0217152
0.784863 0.0186178
0.78433 0.0163485
0.783798 0.0146707
0.783266 0.0134345
0.782736 0.012544
0.782206 0.0119397
0.781677 0.0115883
0.781148 0.011478
0.78062 0.0116186
0.780093 0.0120447
0.779567 0.0128256
0.779041 0.014085
0.778516 0.0160414
0.777992 0.0190928
0.777469 0.0240101
0.776946 0.0324254
0.776424 0.048243
0.775903 0.0824905
0.775382 0.173404
0.774862 0.445917
0.774343 0.53105
0.773824 0.211719
0.773307 0.0952704
0.772789 0.0535374
0.772273 0.0350055
0.771757 0.0253971
0.771242 0.0198733
0.770728 0.0164763
0.770214 0.0143036
0.769701 0.0128972
0.769189 0.0120088
0.768677 0.0114988
0.768167 0.011289
0.767656 0.0113394
0.767147 0.0116374
0.766638 0.012193
0.76613 0.0130395
0.765622 0.0142381
0.765115 0.0158885
0.764609 0.018149
0.764104 0.0212734
0.763599 0.0256807
0.763095 0.0320965
0.762591 0.0418559
0.762089 0.0576246
0.761587 0.0853203
0.761085 0.140088
0.760584 0.268722
0.760084 0.644616
0.759585 1.4733
0.759086 0.890095
0.758588 0.347694
0.75809 0.169511
0.757594 0.0987238
0.757097 0.0646138
0.756602 0.0458148
0.756107 0.034433
0.755613 0.027058
0.755119 0.0220338
0.754627 0.0184817
0.754134 0.0159032
0.753643 0.014
0.753152 0.0125872
0.752661 0.0115479
0.752172 0.0108089
0.751683 0.0103274
0.751194 0.010085
0.750707 0.0100853
0.75022 0.010358
0.749733 0.0109679
0.749247 0.0120355
0.748762 0.0137814
0.748278 0.0166209
0.747794 0.0213924
0.74731 0.0299652
0.746828 0.0471337
0.746346 0.0877248
0.745864 0.206693
0.745383 0.468565
0.744903 0.283299
0.744424 0.111947
0.743945 0.0555881
0.743467 0.0331354
0.742989 0.0222697
0.742512 0.0162443
0.742035 0.0125653
0.74156 0.0101542
0.741084 0.00848659
0.74061 0.00728365
0.740136 0.00638618
0.739662 0.00569809
0.73919 0.00515861
0.738718 0.00472782
0.738246 0.0043786
0.737775 0.00409205
0.737305 0.00385465
0.736835 0.00365656
0.736366 0.0034905
0.735898 0.00335099
0.73543 0.00323389
0.734962 0.00313602
0.734496 0.00305499
0.734029 0.00298895
0.733564 0.00293654
0.733099 0.00289678
0.732635 0.00286901
0.732171 0.00285287
0.731708 0.00284827
0.731245 0.00285538
0.730783 0.00287465
0.730322 0.00290682
0.729861 0.00295298
0.729401 0.00301459
0.728941 0.00309361
0.728482 0.00319261
0.728024 0.00331489
0.727566 0.00346481
0.727109 0.003648
0.726652 0.00387195
0.726196 0.00414666
0.725741 0.00448566
0.725286 0.00490766
0.724831 0.005439
0.724377 0.00611772
0.723924 0.00700033
0.723471 0.00817357
0.723019 0.00977613
0.722568 0.0120405
0.722117 0.0153804
0.721667 0.0205878
0.721217 0.0293305
0.720767 0.0455867
0.720319 0.0805707
0.719871 0.173106
0.719423 0.450691
0.718976 0.543244
0.71853 0.214924
0.718084 0.0946523
0.717638 0.0515884
0.717194 0.0324522
0.716749 0.0224916
0.716306 0.0167122
0.715863 0.0130941
0.71542 0.0107043
0.714978 0.00906702
0.714537 0.00792141
0.714096 0.0071166
0.713656 0.00656282
0.713216 0.00620694
0.712776 0.0060201
0.712338 0.00599185
0.7119 0.00612852
0.711462 0.00645565
0.711025 0.0070253
0.710588 0.00793212
0.710152 0.00934702
0.709717 0.0115911
0.709282 0.0153121
0.708848 0.0219589
0.708414 0.0352635
0.707981 0.0668408
0.707548 0.159817
0.707116 0.355626
0.706684 0.206536
0.706253 0.0816309
0.705822 0.0405001
0.705392 0.0240133
0.704962 0.0160042
0.704533 0.0115543
0.704105 0.00883546
0.703677 0.00705384
0.703249 0.00582237
0.702823 0.00493466
0.702396 0.00427276
0.70197 0.00376533
0.701545 0.00336725
0.70112 0.00304879
0.700696 0.00278978
0.700272 0.00257611
0.699849 0.00239768
0.699426 0.00224713
0.699004 0.00211895
0.698582 0.002009
0.698161 0.00191411
0.69774 0.0018318
0.69732 0.00176014
0.6969 0.00169763
0.696481 0.00164305
0.696062 0.00159547
0.695644 0.00155414
0.695226 0.00151849
0.694809 0.00148808
0.694392 0.00146262
0.693976 0.00144193
0.693561 0.00142594
0.693146 0.00141473
0.692731 0.00140848
0.692317 0.00140755
0.691903 0.00141251
0.69149 0.00142414
0.691077 0.00144358
0.690665 0.00147244
0.690254 0.00151295
0.689842 0.0015683
0.689432 0.00164314
0.689022 0.00174433
0.688612 0.00188238
0.688203 0.00207397
0.687794 0.00234675
0.687386 0.00274927
0.686978 0.00337288
0.686571 0.00440547
0.686164 0.0062817
0.685758 0.0101775
0.685352 0.0199833
0.684947 0.0498335
0.684542 0.0821231
0.684138 0.0364499
0.683734 0.0156852
0.683331 0.00858609
0.682928 0.00556995
0.682526 0.0040513
0.682124 0.00319399
0.681722 0.00267181
0.681321 0.00233835
0.680921 0.00212088
0.680521 0.00198068
0.680121 0.00189638
0.679722 0.0018564
0.679324 0.00185541
0.678926 0.0018928
0.678528 0.00197241
0.678131 0.00210344
0.677734 0.00230275
0.677338 0.00259987
0.676942 0.00304737
0.676547 0.00374359
0.676152 0.00488723
0.675758 0.00692478
0.675364 0.011016
0.67497 0.02081
0.674577 0.0498776
0.674185 0.106099
0.673793 0.0580505
0.673401 0.023414
0.67301 0.0119718
0.67262 0.00734197
0.672229 0.00508418
0.67184 0.00383263
0.67145 0.00307525
0.671062 0.0025886
0.670673 0.0022637
0.670285 0.00204288
0.669898 0.00189396
0.669511 0.0017986
0.669124 0.00174678
0.668738 0.00173413
0.668353 0.00176099
0.667967 0.00183261
0.667583 0.00196078
0.667198 0.00216762
0.666814 0.00249382
0.666431 0.00301714
0.666048 0.00389765
0.665666 0.0055025
0.665283 0.00881048
0.664902 0.0169997
0.664521 0.0418065
0.66414 0.0768607
0.66376 0.0364095
0.66338 0.0152319
0.663 0.0080953
0.662621 0.00511041
0.662243 0.00361834
0.661865 0.00277515
0.661487 0.00225622
0.66111 0.00191712
0.660733 0.00168631
0.660357 0.00152544
0.659981 0.00141281
0.659605 0.00133586
0.65923 0.00128747
0.658855 0.00126428
0.658481 0.00126597
0.658107 0.00129544
0.657734 0.00135982
0.657361 0.00147319
0.656989 0.00166245
0.656617 0.00198137
0.656245 0.00254694
0.655874 0.00364787
0.655503 0.00613251
0.655133 0.0130505
0.654763 0.0323253
0.654393 0.0282321
0.654024 0.0111882
0.653655 0.00546255
0.653287 0.00330927
0.652919 0.00231124
0.652552 0.00177452
0.652185 0.00145444
0.651818 0.00124896
0.651452 0.00110986
0.651086 0.0010121
0.650721 0.000941822
0.650356 0.00089095
0.649991 0.000854734
0.649627 0.0008305
0.649264 0.000817069
0.6489 0.000814588
0.648538 0.00082473
0.648175 0.000851409
0.647813 0.000902496
0.647451 0.000993887
0.64709 0.00115996
0.646729 0.00148419
0.646369 0.00220589
0.646009 0.00416599
0.645649 0.0099569
0.64529 0.0106342
0.644931 0.00444816
0.644573 0.00227025
0.644215 0.00147363
0.643858 0.0011117
0.6435 0.00091913
0.643144 0.000804742
0.642787 0.000731224
0.642431 0.000681195
0.642076 0.000645742
0.64172 0.000619963
0.641366 0.00060104
0.641011 0.000587335
0.640657 0.000577954
0.640304 0.000572544
0.639951 0.000571257
0.639598 0.000574839
0.639245 0.000584953
0.638893 0.000604922
0.638542 0.000641524
0.63819 0.000709716
0.63784 0.000846929
0.637489 0.00116493
0.637139 0.00207033
0.636789 0.00447039
0.63644 0.00355772
0.636091 0.00164311
0.635743 0.0010078
0.635395 0.00076362
0.635047 0.00064818
0.6347 0.000585
0.634353 0.000546735
0.634006 0.000521873
0.63366 0.000504955
0.633314 0.000493167
0.632969 0.000484988
0.632624 0.000479601
0.632279 0.00047662
0.631935 0.000475988
0.631591 0.000477954
0.631247 0.000483161
0.630904 0.000492854
0.630561 0.000509363
0.630219 0.000537198
0.629877 0.000585766
0.629535 0.00067702
0.629194 0.000870816
0.628853 0.00136671
0.628512 0.00288312
0.628172 0.00433401
0.627833 0.00208057
0.627493 0.00109947
0.627154 0.000760128
0.626815 0.000613423
0.626477 0.000537825
0.626139 0.000493726
0.625802 0.000465558
0.625464 0.000446276
0.625128 0.000432333
0.624791 0.000421791
0.624455 0.000413521
0.624119 0.000406828
0.623784 0.000401265
0.623449 0.000396537
0.623114 0.000392439
0.62278 0.000388827
0.622446 0.000385598
0.622113 0.000382675
0.62178 0.000380001
0.621447 0.000377532
0.621114 0.000375233
0.620782 0.000373079
0.620451 0.000371048
0.620119 0.000369122
0.619788 0.000367289
0.619457 0.000365538
0.619127 0.000363858
0.618797 0.000362242
0.618468 0.000360685
0.618138 0.000359179
0.61781 0.000357723
0.617481 0.00035631
0.617153 0.000354939
0.616825 0.000353606
0.616498 0.00035231
0.616171 0.000351049
0.615844 0.000349821
0.615517 0.000348626
0.615191 0.000347462
0.614866 0.00034633
0.61454 0.000345228
0.614215 0.000344158
0.613891 0.00034312
0.613566 0.000342114
0.613242 0.000341143
0.612919 0.000340208
0.612595 0.000339312
0.612273 0.000338459
0.61195 0.000337651
0.611628 0.000336896
0.611306 0.000336199
0.610984 0.00033557
0.610663 0.000335021
0.610342 0.000334566
0.610022 0.000334225
0.609702 0.000334025
0.609382 0.000334002
0.609062 0.000334205
0.608743 0.000334706
0.608424 0.000335606
0.608106 0.000337059
0.607788 0.000339301
0.60747 0.000342714
0.607152 0.000347947
0.606835 0.00035617
0.606518 0.000369669
0.606202 0.000393383
0.605886 0.000439504
0.60557 0.000544003
0.605255 0.000836701
0.604939 0.00163889
0.604625 0.0014193
0.60431 0.00073623
0.603996 0.000508052
0.603682 0.000421644
0.603369 0.000381382
0.603056 0.000359678
0.602743 0.00034677
0.60243 0.000338588
0.602118 0.000333224
0.601806 0.000329716
0.601495 0.000327567
0.601184 0.000326545
0.600873 0.000326594
0.600562 0.000327821
0.600252 0.000330518
0.599942 0.00033527
0.599633 0.000343178
0.599324 0.000356397
0.599015 0.000379481
0.598706 0.000423239
0.598398 0.000517848
0.59809 0.000766586
0.597782 0.00152176
0.597475 0.00191288
0.597168 0.000944457
0.596861 0.000573667
0.596555 0.000442028
0.596249 0.000383709
0.595943 0.000353188
0.595638 0.000335235
0.595333 0.000323747
0.595028 0.000315926
0.594724 0.000310355
0.59442 0.000306265
0.594116 0.000303221
0.593812 0.000300977
0.593509 0.000299409
0.593206 0.000298492
0.592904 0.000298305
0.592602 0.000299076
0.5923 0.000301311
0.591998 0.000306125
0.591697 0.000316192
0.591396 0.000338991
0.591095 0.000400033
0.590795 0.000587452
0.590495 0.000698439
0.590195 0.000449385
0.589896 0.000351819
0.589597 0.000316998
0.589298 0.000301357
0.588999 0.000292974
0.588701 0.000287881
0.588403 0.000284493
0.588106 0.000282091
0.587808 0.000280314
0.587511 0.000278973
0.587215 0.000277968
0.586918 0.000277256
0.586622 0.00027684
0.586326 0.000276764
0.586031 0.000277137
0.585736 0.000278179
0.585441 0.000280335
0.585146 0.000284569
0.584852 0.000293249
0.584558 0.000313261
0.584265 0.000369149
0.583971 0.000529814
0.583678 0.000514833
0.583385 0.000361413
0.583093 0.000309003
0.582801 0.000289451
0.582509 0.000280467
0.582217 0.000275729
0.581926 0.000273047
0.581635 0.000271539
0.581344 0.000270817
0.581054 0.000270721
0.580764 0.000271218
0.580474 0.000272367
0.580185 0.000274327
0.579895 0.000277389
0.579607 0.000282061
0.579318 0.000289249
0.57903 0.000300657
0.578742 0.000319752
0.578454 0.00035442
0.578166 0.000425481
0.577879 0.000599816
0.577592 0.00112555
0.577306 0.00196345
0.577019 0.001089
0.576733 0.000586013
0.576448 0.000417477
0.576162 0.000347427